Ax,Ay,Az,Gx,Gy,Gz
-0.11257013647700564,-0.23695709919660873,-0.709937056271001,-46.17406610710315,-49.12618493217547,195.5979167942153
1.1379069920450613,-1.1968506352037345,0.13281903225897335,127.57811239375499,-43.363559776634986,-55.96277521991895
2.2323113829143435,0.23075212808994092,1.308039229847846,17.71050211635856,6.279586427410371,-159.93548139259698
0.10886021337935575,1.724139525079408,-1.6768276776072586,-0.9476819166751637,-45.06326592570417,10.579302905845557
-0.6269740396633054,0.42036250815496096,0.9236364280498139,-18.032825354658343,4.388337982542172,0.1913807718920134
-0.8678765117035996,1.8924142066290588,-0.5539968352803991,36.20308559345854,5.385759414363038,15.832593561977738
0.6274118141240431,0.23016473921674893,0.0009540587711896198,-81.05089726246096,79.85614435924705,90.16519375121601
1.2476783919922734,-0.24087186380949271,-0.13987975138783443,107.11062698792291,60.19449597832545,-57.02426932208486
0.41325194551686756,1.0993074645656813,-0.7597492458519323,60.36924688327106,1.3560146485007878,-52.52261241042262
0.17352742766062035,1.4984080061005698,2.3904039118116054,-90.50004688778856,15.754765194251595,8.126110516965383
1.349674019110067,-0.3317980625298083,-0.6815011211852782,-23.18228815871303,50.58224949766842,105.12059918543048
0.18853233553197057,-0.3568655840092103,-1.5007116227834547,11.810395955271675,-115.09491035560373,42.31690806701339
1.4392234330368785,-0.5686058483194835,1.2456446381174322,-54.9011132951115,-19.991130913026893,190.1205893142698
-1.8931515944960364,-0.9277579959268902,0.007576103688120672,-44.08998705314284,36.010368254230634,-157.3407466118332
0.9023642765590489,-1.1918144934131847,-1.4811026667142202,-145.62472558819806,19.409239255890128,143.32310554608344
-0.05404859392778261,1.533085484886731,-1.1292456170329104,2.6996501600903664,-9.005603177566076,27.139456971937687
0.9322241209119064,1.0357556398134484,1.388825733220569,-1.1128466833520763,-24.02705917602317,-12.084411716518066
0.5009891490317933,0.4848479792174887,-0.06307897962229356,-26.773076726754567,-19.612401729140352,115.51677389019771
0.017709268110846776,1.4555980666379045,-1.2362651992528968,-9.650729024774094,-16.845825758109093,76.54008645387631
1.2081738288224417,-0.4257002668048007,1.0700256364828913,-28.029856771711394,-20.176903682352084,-42.95217172343294
0.6034636999209568,0.795890967831104,0.12328140347155392,3.7673901874214897,-18.726044896038957,30.9173725071194
-0.01691563137407183,1.527138116065522,0.6389615153028366,20.54536641052779,-81.74608193981335,-130.75295349682153
0.8913638764394094,-0.018584624733860355,-0.001860761761939722,-37.724382963610644,-41.325239326808585,-8.846543363270907
0.6087415503703911,1.4366808523388936,1.5105171098909445,-31.28895389703861,10.658578629993489,99.6405540302314
-0.7478335760343802,0.7569113040347695,-0.4694438200758151,24.653402789408556,39.88749680692713,-87.68560035311299
0.772590597257771,-0.07192764912443511,-0.044890089412843115,16.539398338453914,-3.120855995296685,6.8806727258982425
-1.2176501711268832,0.4211140260384008,-0.6578273146394976,22.80415038175558,45.86308845218965,-54.97055886433315
-0.804434107421405,-1.175798746213625,0.3848492445462017,-11.639366806195603,20.634047607106915,-10.169121475856937
1.2537453666705578,0.8861488346987735,-0.1680399865156303,-17.19498754053799,-62.83211035277135,24.94331496968283
-0.5769316479375164,-0.12437031813957053,-0.15583955051841003,45.93100517469959,2.9692411730369863,-37.38267688622393
-0.39416324876283915,1.9726443275761711,0.29028307125282016,31.98394936186805,62.89702547707137,3.5621819683904863
1.6673963879885618,-1.399033339410576,0.6091717097711273,-43.182430086256424,-15.99879292667304,140.56507399917393
-0.5914381743561439,1.626264366056434,0.2754075453993931,-2.9042051892513308,11.580957168776282,-2.476142961561531
-0.23634944685860648,-1.3113663020933444,0.7881024747214407,66.3599347558662,131.21373628916226,87.75106367117783
-0.47251167905656116,0.6097833998787737,-0.8381196999880428,3.0118208232049968,19.34915172536783,43.27428773143851
0.1517740759945758,1.7632927546203196,-0.0025676741125099933,-34.843357859614876,51.59641273287987,31.386062404829293
-1.464426112685175,1.4602336177011497,0.9043251922907475,28.85275161606029,14.967654870211463,-50.68129624100355
-0.2056915605441812,0.7363889529399485,0.9492912030407171,1.2261413684807976,35.73613018043637,59.16355016835823
1.3101249702401105,0.8833765526015125,0.2336578454018861,60.10042167306018,33.46408404804337,-123.86930504647633
1.396028642137175,0.2920168508423336,-0.010316047559751067,-6.90290279270708,12.724368073015004,36.93253224565669
-0.29433301415182056,0.10113737627380659,0.012843405865390733,-138.39638075910605,-21.932169914556834,43.25936600540783
-0.916023329257529,-0.8347654075445261,-0.31939882220059995,-9.317697430800598,49.01344440076303,115.53773439333665
1.4267104093517904,-0.2513476292868108,0.5758840844287832,8.575585068253389,-24.945313805021264,10.233866808842011
-0.016409576480592436,0.5032243097484701,0.780909886332433,26.10679628620219,-59.12818533554922,-87.18630480090444
0.5722447453194388,0.04867331394631913,-0.17510746642138855,-29.047158236768873,4.9949288897625435,107.13012454472108
1.3696976763792563,1.8938865637026594,-0.13400473384394262,-44.83262484104645,-69.80808316200209,79.6538113097589
0.08753432398384543,1.7955204419346342,0.6901387577423881,-5.159463501958433,22.886710403121356,76.64680689769116
-0.3176512746233342,1.5494390785911134,-0.8639272156479281,83.5556330496957,-61.9253814119874,100.1373483881501
1.522715202025275,1.4152168618814658,-1.331853977874744,21.816629850478268,35.99748331507255,88.25851664103385
0.7787855968856944,1.2536269849332233,-1.3050401140850498,133.87280681565545,-45.12253685949936,-54.697302253230575
0.2705889102795131,-0.006748910099605765,1.3232198799029677,72.94389758056779,-64.23544168190766,-14.091468328691736
0.19667287199330885,1.6789002496114311,-0.6162877488663461,60.31435590598723,-99.35273454682999,-249.84944802729126
-0.28047742328539116,-0.913357633160399,0.759019090039285,16.56753218696177,13.783064442550488,40.473102516739644
0.8175048557321201,-0.8182145761858424,-0.7878298188981538,-22.556323698091855,226.44357950493853,-80.69016680047034
0.896370137278891,0.2226826027917882,0.7504612551975564,-23.574211310411723,-40.30882425678382,-34.866483428937464
-0.8740452186103814,0.01239757676921771,-0.51433234610863,9.032926103814672,-62.48614804428816,-49.77851885590477
-0.3506509308961525,-0.9385521352447702,-0.08812297713733133,6.951702042750363,-1.9055764294429247,10.249516191534312
-1.1568856231037967,-0.1254737959399753,-0.15940853623882395,-0.633480727091196,-8.465882200513784,-1.8088934448560594
1.0704373210277547,1.093990110318118,0.7590321529572285,14.625418159980144,-24.286479305060766,-22.995795351813797
0.7999002357158178,0.853525769639296,-0.6313472879520647,47.941657930859606,152.11488743526965,-53.71046155542673
-0.9597800588992856,0.45929183217428116,-0.16899506882436893,16.854021012156597,-102.36528719708576,-61.53436271395284
-0.04430419611518388,1.6628362504461887,-0.037564056531688206,-29.024139810649043,-122.43932689825328,42.879915892756145
0.39454719104577074,-0.8257952051715389,0.5033674379343216,9.93682441153668,95.3522772295698,69.08862761723212
-0.1639935837340002,-0.2968646105754863,0.1271470947371568,17.19094178781642,0.39325027102168764,-26.71732047032533
-0.31875767173496483,0.8197252916951182,0.6610981468982013,-18.17451911573923,-9.018196366788308,-9.639572535992505
-0.11488733082972222,0.16340287774517948,-0.1572730844739608,-50.922625472460815,86.57956786452814,15.600774536947824
-1.1249384498953505,0.16460120350786214,-0.4588118310350815,2.0879689162744137,-63.75216318612961,-105.35666889189308
-0.828453655728755,0.3904734096249757,-0.6209370024858798,-32.590266521668546,246.90088873683783,-66.38983501893912
-1.0605181830349868,0.3269930466075147,-0.021486855847228536,16.75993708765871,-11.004856566093137,-0.8918573381047674
0.11621322574587159,0.6406657594602686,0.6063016530724679,-15.606510895837332,-4.424551505666527,-14.075414004638827
1.2715419494174132,-0.029591811184963374,0.022161367334871784,36.93982973330157,22.88342963787917,96.26349928712196
-0.7271901492785634,0.754519596912827,0.22382137766681987,-16.66968390287736,-19.470144914371183,-21.55661654781557
-0.7274038568280057,-0.19071822909377067,0.5605613803963999,173.7016264259424,-175.9191846613119,-56.51281703332469
-0.4946287848081846,1.4523594763817056,1.393750932105588,-20.565384039276466,-10.488158741957257,3.8402170670716322
-1.9535688078844453,0.8640127994628605,-0.04225636866171045,-46.34279197945166,97.96399425661234,-88.79652987240623
1.3018653498513715,0.9493650897606465,-0.6200210554891875,-16.06822719714172,1.251146502406053,36.64313253121219
-1.471210871601952,-0.15378817643978204,-0.695678172579899,-41.15773673686427,-5.57106815443691,40.7809711801774
-0.20030242029815276,0.08887155057529283,-0.8552136836682749,7.816367109796029,68.66615282599878,-1.3372564276641412
0.006233219439611054,-0.8716288205275862,-0.5401197036486591,24.599100271959298,15.454531657392613,25.575239440411746
-0.034040546023620666,1.2298406184651156,0.9402660048908515,-10.346810425486055,38.48292445094946,17.14041535444233
-0.2729109045844049,1.1508614764884464,0.30960849332642265,-2.9964717289210934,-25.266336988879207,6.24180549864586
0.2206391002442428,-1.3513441591013167,1.1169576562835233,-25.15993205305852,-14.813498328179863,-58.65923262013079
-0.1339544387069481,-0.08556529885973674,-1.089868461200475,-8.208159974350917,-29.829604176068525,-45.78588207442118
1.3866502583870033,0.27841597658425665,-1.365413564801488,-59.955848456278495,32.11601964456757,-131.51424374271187
-0.7083032377633963,-0.5040176822902901,0.8652101960899721,-75.6359990146738,-18.09029507678824,34.32732459718277
1.4512521002034684,-0.33966469238808233,-0.04764954918156644,8.454099045883968,-94.81954221230788,127.6294848889391
-0.9706101478130963,-0.283536326348153,-0.007149635477452565,-118.6790611649165,46.83422472559629,-5.9459092970903225
0.15560837297126157,1.263607650173633,0.21940127950969768,-3.3595740445081077,25.93564014046956,0.8955497357809932
-0.2843852801523353,0.8434081394592081,-0.5684867917873032,-17.686713168350384,106.67483628340135,-16.91462353849288
-1.5526408744239357,0.6712650083951672,0.960662706390618,-140.9567740910683,-16.411237840283896,-35.43893998125523
1.025240995190718,0.5403195144847363,-0.6591827454731107,55.66137531815575,60.29018540104555,-127.3696460151522
0.6968545659344215,0.02834782845805467,0.4019031988989724,-101.13738890387668,-0.6901348708894347,96.15817688167836
-1.360265895107745,0.15676899390045995,0.29507647606662857,-28.869064178118283,14.608463472500482,-38.8982948500804
-1.137640825354707,-0.41435305893561913,0.8031666650624947,10.900600408412618,-15.729427593217189,-61.855393081650604
-0.850454690911029,-0.35410608450963477,-0.7957990082274902,-44.95662492720245,-26.22825129251037,0.06408385370720682
1.844849501836344,0.30677306437072815,1.4309212861276959,9.263869765290123,72.89737177351451,9.516969595359907
0.040872912117889904,0.06347617572919184,0.04093048275744171,-1.3855497840629447,-34.86122402854509,6.594054374468669
-0.4094575333969606,0.6256636228333713,0.5420345465823944,4.283020583989452,46.423312030731395,63.49860542195534
-1.7530216802014116,0.6197322620949548,-1.5876621647306912,-23.806048268896916,2.110430140882017,-28.636756900813662
-0.008143065067171829,0.3428829794648336,0.3152202821978888,34.55702058036904,5.476565922564321,20.375563929035778
0.8358845767971876,0.0987931233947898,0.38372007479618464,-125.81521170265414,3.4662636259406643,43.86927536786785
0.6733126805643503,1.6709454720052124,-1.6849249426194426,2.827949713978986,20.220796875294713,9.470356643819827
-1.7960075380185745,0.7553642096983075,0.7912560029643391,13.775297770191946,-58.003037961844086,19.06849799647186
0.5947990087072796,0.4414992171250987,0.4336973237211909,-0.694377608835185,67.24208549318604,-21.334867786626834
1.6937515157926057,-0.28467008083560735,1.0059735245637722,-39.369097147444855,5.661134332462636,4.289541181574991
-0.12624263380858047,-0.308424705145737,0.01831757063370827,35.13988567565893,-84.06571772841411,-25.339423756386974
0.13879002690839431,0.5571553202026022,0.3895426742767656,31.35373869373178,-9.347621622043812,30.672262690994124
-0.8894258713910406,-0.8506181241718256,-0.5170779463352138,59.96295558744112,44.43337564005228,30.25395014738074
0.3035507256483,0.04662356312898552,0.687104712785586,39.08045420731853,45.3540180149201,-87.11490885230937
-0.39492908225787415,1.4750734658920326,1.3144251790877983,-95.68521603188015,58.72162296244066,-196.00550136608777
-0.5708446240965176,0.24272624734579334,-1.387110856882171,-6.264637791896397,-43.12015234442649,-2.8428412165956813
0.9700578722475612,1.2413502243849757,-0.3175829694138784,46.01706538910511,12.384117021083338,-0.14678358104631148
-1.0368482846026361,1.0252517202808669,1.5963812963305868,-13.885607701164691,-5.369322914499409,12.207634437838504
-1.858335919405938,0.08197274291504744,0.24491280143171085,95.27977603062072,-32.62770986962637,25.88300551251613
-0.5491538922487927,1.150624361703704,-0.3852442488352281,-32.925580516418634,60.13916823178648,37.697285426562814
-1.5994691021729532,-0.735683907285856,0.07650124260013261,18.89355042664863,-46.76422988779774,66.64526763920506
1.9381085805315887,0.938708847154482,1.305109299821693,19.24248065905395,22.29767097761463,95.97798742654108
0.10123200731298337,1.285172471601235,0.8165875211769635,19.099881735939192,-74.2354303532986,-10.30008330021177
-0.1040640050224728,0.7958338128720123,0.20141423390569524,-27.09678184268983,-9.87119906439131,-6.572281956190282
0.26098840187452255,0.6562670404023615,-0.24587126607018606,2.5293841985110728,-11.054439691991965,-13.885895512764693
-0.5489767560207373,0.08749671097781397,-0.9418372398972654,1.621303632528729,118.22007072450485,-11.380775197671907
-0.11758141885784773,1.2907653028525725,0.9099719147856158,-57.51324458554381,-136.71083617235809,15.974543242980163
-0.17821102484979484,0.9598996271511198,-0.5196022643942781,-16.393951139687886,40.79131035511083,-29.007814453772475
1.004631010281477,0.6676298221297178,-1.6533598569121692,131.46118821060637,10.90515071518021,-1.3543849473396787
0.42572091136416734,0.09298093743829855,-0.016283590550498855,-70.01831864933952,108.35555114456811,-12.02165461501705
-1.0143818559036915,0.7357058816927613,1.4600142077615006,-6.204983902698145,27.146458102244203,11.94230591940998
-0.7697952377123272,0.8213676663536629,-0.3760763149680654,-36.66522959889275,58.634746629476105,-7.480137111601791
0.11468868572396645,0.4526219168249178,1.0947760835097435,-39.83510424050899,-18.479654325569758,-18.16545628751508
0.4931748343749383,0.10955582010220921,-1.1935628295579455,20.356564234720885,31.0392258342685,-181.69127702392373
-0.11512274129838512,0.7551020299161775,-1.069455727508069,31.91054011519994,43.83014148753266,-1.325505249941869
0.42242424501922893,-0.1762804811341207,-0.49188188117788556,-59.040391449853416,-15.897045141419978,-38.20092753562109
0.05675503335869482,0.32270100434345983,1.9068912313311361,-3.4378086460544393,-18.117868754607475,36.36700201804217
-1.93122371533781,0.7447679503646427,-0.26732854623917013,-42.804042519548304,-1.943096378504677,-54.34891174844456
-0.4068689448937447,2.4838962083510823,-1.8379369087062547,69.81552994220496,-44.72660923620589,-55.639566029341935
-1.554580363733582,0.07504969713440764,0.5722280515623206,90.81375542470684,1.382875048859683,-99.92271240507765
-0.9083017143895313,-0.0038224195679487094,0.22367714610569006,-6.260567855787379,2.589170880799604,32.13102940515483
-0.056679726811961983,0.7963873121364187,1.1707912648202632,-12.721808655258789,36.085458011650566,33.455266319976225
0.6537608531756043,0.4549385540682575,-0.3454903858043209,-4.6141168706198075,50.3213478335455,40.02743597695051
1.6261132208965268,0.654656316261849,-0.13833617944362403,28.589215385667323,24.74443658115409,35.64984159020496
-0.43996574903242264,1.6101322573594614,0.6272440597577805,26.806251350179526,-14.771065655843062,-10.410654230384031
-0.01390720675997087,0.9182116518471036,0.4552618274192687,4.871961514525131,44.495923941336244,21.26352298559595
-3.4576458073246945,0.6030786203583265,1.3654529345492832,-18.226937613185914,-18.78455288731822,91.88582366129108
-0.17861875153326434,1.185615664404612,0.3198417116954101,-3.910409792918693,4.606654920439764,61.713037394026685
-0.36884395242338563,0.5708214876330323,1.250772854918691,-24.775435485976878,0.5949454677853174,-45.10920982634464
-0.46559216165803435,0.9666948243464735,-0.21319858463599006,3.075050037416353,-193.7124682006328,-8.613613721219286
-0.025455323190556805,0.9964994828722054,1.0793506194892994,11.135596103708359,-18.272537800047683,-16.925643365515732
0.3879122086281399,0.27743765916172747,0.011665459337950745,-49.88663165297127,-192.94216801417795,-118.40681585290996
0.23932179602154394,-0.24225776755545708,0.6290513095030018,13.120903146586661,12.778775942486275,-89.86279704782268
-1.2690051428778364,-0.31619623668198793,1.6408770335647018,-95.11330287517814,31.163022680530105,41.79249853957331
0.9685450245085776,0.16202623885152728,0.863500106959726,-73.90305896879428,-62.18634735684379,109.42673747275859
-0.2431326416178981,0.4157830574522529,-0.3358991639770402,6.448258006481007,23.7653516681434,14.555554913242881
-0.13336063108122612,0.6270103589640657,1.474619311261279,25.296811108269072,-21.091835314247906,-27.50433039515068
1.7367355633699486,0.8489895396517687,1.1136898441664387,-35.58068314803179,250.4284948010397,35.135051258784245
-0.5820954687012803,-0.9175135675911371,-0.15410775105530772,-33.55547910242112,-140.0188862788747,50.63313884789244
1.253975566234056,0.48214564135061283,-0.9006374166484237,-17.249461995943207,-15.718465507314775,-8.830108545948475
-0.9343499509998834,0.14355683938852082,-0.7877486438505744,12.277286891574526,57.2847319995763,-12.492038972073832
0.08760109677769506,2.9655012545729464,-1.0309734258338654,-5.00035915049597,95.11523285618802,15.004334046193513
-0.4307608043743325,0.8358853444683765,0.259963366261128,-24.92562687792731,-59.73120713813424,68.26701912196923
-1.5117586019393736,-0.030406507813807975,-0.5532995686333616,11.806435267575303,-11.757751190635375,65.06853744194053
-0.8573241401774822,0.2904713612976849,1.1560962517293838,11.180962682336027,-14.134939686086096,-32.613900650106935
-1.8097131522459433,-0.3705404802480008,-0.4926154112447989,6.203636745402035,-10.099989842628991,-66.57834632725064
-0.04209299529688404,0.007555772519523437,0.3175408293449722,24.719584407663568,-113.09040893115495,-42.217135885856074
-0.0038884210561287436,-0.6147438703501125,-1.280590704392228,21.460686404966342,4.773279719848744,-29.17480758835576
-0.14874596737333323,0.4088810395291561,0.6482000382392197,-32.55039561024566,176.91038368787542,25.419064393461195
-1.0205879940527078,-0.2695956019207367,-0.7556056317631145,13.086956365212613,-19.348440129278856,9.62756095329589
-0.16123598352500665,1.094688617737038,-0.14907456672914426,152.46502606136943,4.597556958674711,-7.490242750230126
-0.9397112711119253,0.013902704615181942,-0.7115826537538612,218.6736418604225,-103.06178084808292,-13.643742020846366
-0.5537163583377489,0.8470145951906406,-1.6448917754211,4.595723155692803,-20.226617087047565,-9.421002355841443
-0.14093385250055346,0.5571359555162733,0.38163005691220986,-58.47110479076229,0.18349082293449392,88.71509108844742
-1.0428312635104477,0.5143536727346734,0.7707393954934438,-24.03621912536514,-3.5221027265746687,-91.37075274740353
-1.7241557549100757,-0.8175882597242939,1.6300645083494452,21.575985900837193,-35.80354412756685,-116.55748220023523
0.6813540111651635,0.1373307819137467,0.6546609557894719,-37.03331241307246,-47.3737887744187,-5.9050237752205375
0.05901719170232439,-0.5501716419642257,0.25568101906256535,-14.709127712143447,3.0206094071569125,-17.224924048947962
0.22613488071141646,-0.2061961791331791,-0.36362535147083425,19.596357670264837,-1.1988822247311988,-17.217271840887822
0.2762094318478254,0.6440668537936466,-1.3717436284920086,2.684852974491464,-45.42872660430922,6.173418190573299
0.9873700371935054,-0.4091071444993273,0.3556805733670883,95.8626245856918,-1.3672693490647485,-23.321353992667746
0.02609009191411083,-1.3808138854707717,0.5260694938976548,17.440546681877027,36.40308486061668,-47.48444279493402
-0.21394118455544087,1.4981830024284455,-0.8070720595883846,32.31451126429307,-2.553318773251493,28.208702710825314
-0.7968637836433289,0.594432908089613,1.1655393900584134,-116.13090969590766,35.55834147707703,-63.060397476257485
0.7047416341833588,0.5194975384773125,-0.7306920427595016,-36.6701902587616,58.926029616362236,-32.01651728103981
-0.4880689603387905,0.06825523182380908,-0.4352443512552433,-59.391487525771936,-9.19136405417683,-143.46288023470612
0.3531519057703553,1.0395261560710933,1.2939753430389183,5.247969847342075,-9.224296772517683,32.58726842430839
0.14922704808176246,1.9788169340941957,-0.1600104960885031,12.43026620508352,-9.490958225420835,-14.765355602377884
1.2544336708042807,1.7342490104954178,0.38642613278393134,-13.90410990209781,-23.956880776582608,24.844354703357645
-0.5293654119902549,0.2060797467999151,0.29586807641776813,-9.997521924037617,-13.973172506610181,-25.836906953280504
0.8030437308471039,1.1898046621961158,-0.10450183001860625,61.60747889666022,-17.875056160910848,2.6404116853985147
0.7403588052022796,-0.057679680187573634,0.7263647391786355,-36.9496166670733,-40.39944289820412,30.05772969260169
0.7714874305866902,1.5246198454082907,1.2197997707325736,-72.98335944233146,6.317795987497379,22.101609164226957
0.0348701294780458,-0.7600151717922587,-0.4108719341027504,22.88785874585233,-37.32000434829068,12.102383622293823
0.4188592034474356,0.30259075895903276,0.8218956734697758,-13.249060913401618,-74.40104199190118,15.28103523868344
1.940070833519322,-1.0147112602303348,0.68286344665078,-67.5148289007684,-32.89017242544306,113.56295287604698
-0.15780338178091724,1.3345477049645909,-0.6468436263748567,35.31106449860345,52.26427753821473,-96.60378390191133
0.5120107566156789,2.44617613501324,0.16458166652274656,10.219185546110804,-17.14644142717693,-8.852068969836125
0.0009257034326338731,0.36651196958688104,-0.17545921374521622,18.246523266539334,-158.1692829521243,-0.2274321571278749
0.3321490032999198,0.21264416225256022,-1.2750099452130637,-20.67135905106508,-114.0626385169956,-3.9823871509196627
-1.4135680630238854,0.05957834984095843,-0.628111935575014,-21.379172235958965,-11.785370497245516,-40.20987314213356
0.11891407122963554,0.6207523972773382,-1.4841923739923228,-75.40853739813434,147.3795130962428,-37.9112846081992
0.25405486160225144,0.44262643867461493,-0.5163034708589787,86.57410084385877,25.591060942621535,-90.80229446169737
0.29894965448802235,1.8633022280857254,-0.003918179394209131,3.8089848340082524,-33.89583614488841,4.442851431281993
-0.6955614490807156,0.09549206706183211,0.18667652394460904,42.029909309576944,-8.569563019037032,-10.498284396558924
-1.0089434027980482,0.1702254266207328,-0.670483134904346,3.488844243911007,-15.487655895732388,148.82993588121943
0.6219467776630276,0.8448714949822038,1.7863608172483314,-18.78697146551388,15.77810385560737,15.641267368711937
-0.23666227905774512,0.9495814067135426,1.2108660425638793,-35.95604859181736,-12.857006253903036,-4.94296806065737
1.4889912741546607,-0.40550036427670755,-0.3515923796928189,-4.125339154457742,8.018091930981623,83.6042810907644
-0.48067419928431043,1.119247961202852,0.5146489619805841,35.51837540029258,6.128162353593049,22.146026075694245
-0.019406598864242508,0.936536167696429,-0.4408177183573042,-31.938216226536248,-6.008724643447565,-19.75439404344078
0.02271315375570751,1.3620024930775614,-1.2068006317715794,-99.26634869738153,99.01605136698798,-5.7888094743735765
-1.7475731744051854,0.9162502935481334,-0.1351017725016398,1.812195621583408,46.36156525755686,-31.316762866657626
-1.5023483145357952,-0.8435057145901055,-0.3312385034947079,19.51596758423335,64.73993103986423,-50.328809465649094
-0.7639637551853713,1.086865400709507,-0.9590018165643563,36.70101367742352,75.0477671855297,6.481688831304254
-0.960304138224003,0.05288166793646343,0.07971614221744372,49.864151819726565,-91.32694751972052,-60.6687445470536
0.2406732718475615,0.8093372623439601,-0.05040284171414455,-23.645469551863133,31.041244508320574,53.60598878177823
-1.0307366980369113,0.8197728008482,1.2376182261705937,-8.037660245880014,19.22094615739325,-81.86127243324147
0.8325413939216431,0.25213238432459106,-0.0706504156560273,69.9328092084253,-0.4249205823124698,-57.409791495032984
0.12996308276720198,0.1687866544155055,-1.6401906929869625,-3.8877068252093454,91.04443324447415,-18.37801182471859
0.7759439378727858,0.4558261586774151,-0.18169318637456006,-20.431086186134106,3.032149908851409,-28.821047736047678
-0.40428990171864965,2.177213890273576,1.331432740343296,71.0532936767913,33.72084992740691,32.51370465274795
0.4224910486168134,-0.25096922046906417,0.04265726557060545,-20.50865010628237,-35.05795668923797,5.927498240621359
2.037358971428865,-0.9177586568410386,-0.4315842835028645,112.52602190197126,-31.886824279593576,23.37734987685603
-1.0435167203157965,1.6568812523628944,0.03654990010965938,11.863499569545501,-100.27927561491308,-32.0861781097327
1.7311699683493997,-0.23484068269229902,0.3616786468437272,55.198239316857205,28.9637534930392,-121.036169713322
-0.018638337647139402,0.44627067003445253,-0.14224690753324276,-103.99447243708683,-31.563305128780364,125.3312477212568
0.72022619274966,0.4418234904338347,-0.6252880529453843,46.6335433764153,250.21967067079817,47.04171094189875
0.7535702357490849,0.3048658995282575,0.22937093132870465,11.345591572867985,1.2209220515436348,-20.31313384898232
0.8843026187365485,-0.06170281273324241,0.4150308992920615,8.608470057124073,-7.163487554839376,-13.25362635141416
-1.065061405958948,-0.09145806419844298,-0.005873731663490929,-34.85755169854467,-3.3315467868466233,-44.59599105629788
0.8957928741849361,0.19553709790766383,-0.028475849640277273,-6.241327319644405,4.760685716302936,19.930748794527062
-0.895446748293433,0.5191280040736788,0.0847074778928581,-39.93938498645807,-46.78465115512959,-6.791091274224871
-0.5526154181790435,0.16484105587984782,1.2890422903932004,0.5658770841540393,23.636176882067815,-150.270934926714
0.30936881192246346,-0.7701463903616217,-0.07591599493958545,27.749180188424273,15.286755106936022,-6.858881600977965
1.938428401057341,1.7464881875931588,-0.10979938372016085,6.055891103502191,-7.559098019869463,25.987719783626716
-0.2492503656202405,1.0777698655245294,-0.9124734071658547,-25.08834176343547,17.470798496963013,18.05963432500492
-0.16379542453744053,1.5789629669698915,0.7054562716774821,16.083714863699065,58.73057699488768,9.445175693232944
-1.8338168849795506,0.32795658494020397,0.5069639980819531,22.660924269337677,88.10075812326663,3.9218172212115907
0.48534533757251797,-0.9920012968659363,0.45632287967345375,-23.788536131811917,-8.632030569402994,28.363801057492584
0.6126453173735169,0.3599682037965388,-0.28872267617195085,10.735420227735482,-29.75209277265714,53.42610359894061
-0.2595305026260104,0.9618270256383928,-0.47306959801433274,9.958829791708679,29.206610117170168,-23.19304484589594
1.1631174707074343,0.7116266157019633,0.5575677833027952,106.97837857674222,-10.30318657872083,-78.0615674773162
0.03034667146459788,0.1817613746016632,1.3731553837248818,13.102754332742146,37.02888094916066,-43.938178873403594
0.5072702738536513,0.24942778217385678,1.7690907841171664,-7.654636074232709,3.808827889465248,-15.407542911573135
1.1874954330442753,0.24137730790031275,0.07084659211370924,48.34144314369437,43.43679145103083,-20.01477087591432
1.1177707842287843,-0.7095232866581108,-1.011241994509291,20.45358794214314,82.25010138377515,-23.33345444960321
0.567466095161155,0.35112621466268057,1.6040732863511182,0.4471373448378927,58.97885057191762,38.885456022041666
1.4529974339681817,2.1460959293818167,0.9473902906611913,-0.40136027261125307,93.71398186843037,33.00915225056421
0.9998035999666279,1.3883279282957812,-0.6186122749678922,-19.07775183996853,-88.51666089159389,17.2401548064698
0.81487483449694,2.0716835676291647,-0.17605182689694832,2.141525669571318,-8.717230967348225,-85.75988778514177
1.1663575948679477,0.8539413233366051,-0.10503094890118839,-61.524996466587396,22.998391353937446,28.981122387507632
0.7044588020635568,1.7377451971163365,0.14601846262658064,-30.48150869947271,18.723166376537637,30.108672358723485
-0.3064260890237558,0.6118459925678407,0.9426940034234828,-93.36782350538105,150.57100374185737,57.770247533999985
-0.3790288128266521,1.9193708480429785,-1.305413295436235,-12.72778953353418,-21.219409940492362,15.987208864736958
0.43539664575477627,1.1001690184656305,0.1556122311849807,-28.21664082755894,-13.238858453314316,50.31734297129664
0.24577297712954577,0.11796477503941957,-1.361952128584989,-39.36345877154124,-177.24936464956392,95.31257326824931
-0.3725811991899975,0.8409908542967626,1.3812560226692343,5.242930053485401,-40.61187345799614,-90.1193963250273
1.7699837865212178,-0.1262812186552045,0.9070365969961204,-64.24172491499095,-15.097281082104107,-51.3081180925238
-0.3611536914361777,-0.09680106158020366,-0.2876683385261037,35.87125010000631,-30.576798422695727,-105.61069649851791
0.9064800749250742,0.5480691820529475,0.5964404725022768,65.62723021317578,-14.63337318009203,-2.663588205505634
0.7400590725869487,0.5427486788236024,0.6742632106804397,84.44164512933847,14.088377339555624,-52.07054112358914
0.3514796734822929,0.8730041085391264,0.21867974339515517,-14.043903312522996,-17.764420800126782,50.665140881110304
0.1615194396884444,1.2928441518003622,1.8711782011134577,11.757356912547307,27.752268339502592,0.38450895920251993
-1.115212723013795,1.5932933671664387,-0.20905201195076226,-34.64071399176549,0.8526199816855814,-39.924126138821165
-0.4602960237404954,-0.256141074518775,-0.018027903267086046,-15.10930375933548,-5.003424187117608,47.47130569235989
1.9838789228520284,-1.27953645718774,-1.0358888909207222,-17.38710047937921,55.21404988661494,-70.8337994785433
0.4877851313705819,0.39370069458989876,0.6006885878512577,-15.13748936806617,-13.978089844988975,-20.398557340515413
1.022876046538544,1.902779223175187,-0.05318897404868206,0.11475428123245743,-10.991420508676839,-31.603705103501888
-0.42265323798021626,-0.11532124197294147,-1.662310780933344,-6.829786587849489,-11.2965880502365,-8.50856555006821
1.2036377743010882,0.31192627682980234,-0.3547256282387512,1.215441334485042,-35.540803926933194,-36.34249539841733
-1.483782133952992,0.10122987105340717,-0.14161197063215608,-21.165124304407406,159.02941239130877,50.3293980316449
0.7700199801786637,-1.0650807713210775,1.1767374137846862,-25.094832266531846,-25.790545721297992,76.3673616565437
-0.9411761296763417,0.3193704112650212,-0.44660145403144547,27.44278688599429,54.61222454818449,2.118548498333438
-0.8191336813199064,0.013831264418221884,1.2281925270787197,-57.67523876296622,-41.3147066665251,-55.60713511346634
0.023446152648181045,1.5345610452339034,0.9652541147527252,-8.357509040379178,-3.0586901825399475,-1.919364304694445
0.716670054035605,-0.2127554060916781,-0.146910435048284,-54.561495711784026,30.599258458947883,96.17008045851543
0.2679611353744686,2.3193438031989864,0.560709439247146,-6.245396144606553,10.657859788780309,17.425507263713843
0.711447735340917,0.8383042838741048,-0.9230522634051763,-136.8127620834843,-6.984267865959718,54.12891601795525
-0.7230466714586642,1.017019012878521,-0.5848362055048464,37.34571259067915,-11.135883576111125,19.213084137778207
0.4929186958120424,-0.48043009944799114,-0.4484313802306799,72.77316407942357,-22.635138147918134,-83.7917010041372
-0.6836139526387917,1.2650965697771155,0.5801066609978237,20.311972728736382,-14.910332736595882,124.19681004027325
-0.5027528235394495,1.366495781393102,-0.15099807518848513,-21.259820862669294,65.13273878019871,-20.635390116233868
0.06838870150902032,1.2116783619212943,-1.0834189191902814,-5.226767757004362,-71.89030874197738,44.81129718393941
-2.3251236302647893,-0.14679790794480796,-0.034566333813891126,-20.080076376579154,-38.030489360797674,-8.186008954437103
0.663197648958602,1.6816293173159207,0.6920739699696128,23.950928200664258,42.4139326072623,-1.5214892637057833
0.8818231958388995,0.7757747001631463,1.0376814984757423,31.988447348272373,2.614892972957782,45.10632296862927
-0.4450425301612536,1.053903564482766,0.13313793689521325,86.92986559923021,182.0141443329136,-9.164220890377592
-0.1435937087185576,0.43199864053964704,0.48996929166928194,32.02144400656977,56.69743545184586,97.12645551151834
-0.7231636886300175,0.7828332070073425,-1.1078343938936634,-11.132326012657856,2.5876295244005147,0.09490177104541908
-0.8504342989659858,-0.5559228979804649,0.9526000615104064,12.250616892691886,15.002076123095513,-15.410160221946818
-1.5155254080592462,-0.5780009107108696,0.17531345089528805,-68.84649050847277,-102.57084423449611,63.4000851715806
-1.0157343394669458,-1.015776345077455,1.0105120301963104,2.586918999943916,11.673196030124023,-9.862289860031806
0.4569656548258699,0.34576092700546823,-0.035562801986886106,25.69194441457474,0.5563830959564002,-0.9068396375391525
-1.268606646040958,0.017093074184410972,-0.10500108177549855,21.70808111043248,-26.310720723283758,-12.637334088694088
0.9037763271245314,0.8227272289537756,-0.5252450449591786,25.247551269905344,-32.0641673596394,-55.35293707495013
-0.4935096001028614,-0.08546007015104573,1.636113961895201,23.55638442924975,112.43865193386932,12.002688533766936
1.1042382210110113,-1.1680483712941068,-0.18108722544267833,57.34557262866701,-39.12345333552302,-30.099719212733493
0.5810838556745433,0.028868114362800033,0.9305236125933414,18.81194568119169,23.25719149184504,65.42412792834548
2.507629190497534,-0.6824205142639521,0.5076433336278026,3.104656121728674,140.284672230803,-20.735022374935035
0.7713489424587759,-0.46960701806801364,0.6033565689113647,-19.551958981820345,33.934163607073785,16.803046919972186
0.16619758977338084,0.9317420347647702,1.6554647431851304,16.895720654764116,7.094523180524345,-23.889769734373715
0.15016519684158736,-0.15211367267312345,0.38516577363566595,-12.823482520830417,-41.35786687860654,45.72094746073709
1.1393911373776069,0.9149438400780585,-0.480684221701408,76.04362480552247,-249.41751015882727,10.827421450368956
1.0760645659469688,-0.5330136618986092,0.9541798616597331,-13.21799735299059,61.16046486340809,30.084255563918234
0.6130194406547761,0.1993892734330388,0.9201311844734372,-59.53178748134131,-28.480972152283844,84.9118450365227
0.23512143209828618,-0.5050418055446866,-0.4993656032294435,3.6501989768397007,-95.68214862508536,36.33490318352521
-0.5141665295989797,0.27440916862771253,-0.2924865074323719,-4.287407180637847,98.69539145872724,-50.648978976648834
-0.6736837264564102,-1.007492177164265,1.0412396786350293,13.642648911767907,4.980990689019957,-98.02790189400639
0.6301604972851573,-0.44742879208501124,0.7794206360403553,75.303656445364,-6.607351058687918,-103.12851493018329
-1.6827621056131705,1.5822655731010322,-0.00871992886715961,-36.32576916596187,175.57269938071687,4.202410343285421
0.3920318910473363,0.4736403041899389,0.3668294158738108,-1.0389546426549514,-12.074067542631553,35.438645571375474
1.4379636671401084,-0.34616722095475183,1.7715903174748049,1.5752382328126913,-43.20101026030094,-14.235609818331247
0.07674194432371415,0.48621743296184494,-1.019091615253138,-17.92070686008858,72.40960344208455,-17.002009983923482
0.031576359441607416,-0.4488094582970716,-0.2707526034153992,152.64462937638783,86.2033909365622,7.36569229639035
0.2054536981812769,0.5345036554698248,0.5448374187057217,52.726976906520925,-135.75365856220816,1.3331018179120824
-0.46126514002052166,1.2079637100859895,-1.1871769168720427,33.170888904404684,63.064158319138336,-16.328573099303917
1.7472621637389976,-0.16372606736906137,1.0773269752972823,-3.4801161143301664,-8.975043792173244,-144.754935245084
1.7276797522088865,1.9893704385410396,0.9298891880944125,1.929054306656443,-14.124591390901282,-14.308597225062444
-0.11581737808020687,-1.3015988137984313,0.730916901356714,56.13079628078767,66.5921437073027,50.209164939206985
-0.4641812228510248,0.10052820892450481,0.5904227078782031,31.229451469318757,-93.46250194844077,14.316257059763059
0.04062837417197618,-0.5516898733050428,0.17561202783532132,3.142284081689692,-0.6755106650834908,40.01716100384246
0.17836267187879318,-0.14210974440614102,-0.12785432256860252,-15.99088558344759,-21.477102430241885,139.7459269382376
1.0470337369486282,0.26002193179427924,1.2669262887222712,170.8634531743864,23.180826360996985,-117.26156340501434
-0.8114144968964406,0.8132687065721629,-0.7480453548643909,-11.52166529034824,-34.26336910415879,76.93520190463975
0.0657333999959433,-0.5963449933074493,0.5167188272029765,-5.819899212042813,-22.158308669819004,49.4342665808689
-0.9592346742621964,0.13619789161916704,-0.25961088726320614,-39.95849060825201,26.475299351790337,2.658979922716285
2.0281799239634246,-0.06799004641992107,0.8958790080313727,-12.191704996470053,-77.20313247771647,-15.615861141254431
0.22039563893811948,0.09674719720017294,-0.4708123957947882,-25.15394506795308,0.9933953030088818,-5.24390821635169
-1.917314317837777,0.6649959792951884,-0.0036542417769641067,26.6223914228296,-37.36237322907811,-95.95067563373817
1.2891743989164115,-0.5796547945382753,-0.365542558731289,42.9192835533172,15.006971620963137,-55.01803838769878
-0.043486332641256675,-0.7272791727972348,-0.023770990842670314,11.473822357932534,11.861949037244306,-9.955351735675768
-0.16816213783541778,0.07153795882169589,-0.4396289485746619,14.257678680686675,97.75321977078185,-20.490491106088474
-0.054804820551373534,1.6778442656228938,-1.3139144735161294,48.82572796473624,-37.54684150204935,48.22485037683904
0.14895811768731013,1.0742612470982191,0.028708070981080247,16.416796174445622,103.53200026493137,-25.170555893641666
-0.4278568189407247,1.1906768140789015,-0.6900219833593809,41.28867791412683,-37.95366530503297,41.97880313170511
-0.8079862253181879,0.7259571540101313,0.5605772541241918,3.146795476060819,31.35166213067495,23.456296562161242
0.4938171530893174,0.03421018221792477,-1.037587554060564,-215.484867883041,-24.991614681728734,119.60291370871751
1.022068839055708,-1.0541298485417496,0.8673145091118589,95.8340762284916,-0.3936437703982708,72.48345841947182
-0.5774336384292302,1.90939988843932,0.7944991745692258,-8.234950436119915,112.81675824617683,-35.29281787633187
0.1480417719528288,1.3959444825646221,-1.3513070935817648,-43.607166593328465,25.04382289090773,-19.39863095725886
-0.0509591322041989,0.008436960853054617,0.6846683277921992,3.048122102814954,-4.971864231165366,-48.56737154841235
-1.1951031707121336,0.11390657607666976,-1.4200014336222724,-55.456518872952415,-54.41394203046332,-20.63105695781679
0.09705421069280684,0.3265432841548602,1.5978549047227835,4.602286065103931,-28.99858153669691,25.77968944994239
2.3358737321782534,0.028013332471664376,-1.0736230306205792,-10.238027235675546,57.121695730868744,158.44860908280938
-0.7464670646812389,-0.38976058960282445,-0.7277698163572901,-30.664795680095487,-4.893027590640975,-6.2740965215606
0.5857701607447194,-1.1456622758758734,0.10871700464098395,-95.62572040752008,4.4688015201330575,124.52484154097426
-0.26624713069759703,-0.31857612498286203,-1.5552450962810336,-17.903066813182946,6.748807758825373,3.3337815711244567
-0.792234482769705,0.7079152452325119,-1.178272500424941,77.41970043856203,-85.57752129949625,34.77409626656475
-1.5491885134109014,-1.0537517327192463,0.5774896419782892,24.765058400183293,-54.83252102934723,-51.141224148786776
0.20960671445738044,-0.23255634460446073,-0.5028336290709678,-3.586668198468152,-16.777648037566294,-3.8818230736631874
2.1879179332373018,1.0353005939421713,-0.3925522463546059,28.888580418347715,53.1532969462043,-9.965778785822842
1.1308354498450504,-0.010777607695010127,-1.809567710231849,126.13155389193697,-36.28553877338111,-75.53574863132926
0.19634819949148105,0.24353468175962906,-0.353998836587046,-59.797717041543464,24.095252518742846,57.487333114971335
0.2364141007349194,0.22629064667051213,0.9150492521836138,-12.473600713050333,3.588665645359481,14.073117222233076
0.45339721746531275,0.10112709259441516,-0.5824110620839583,9.873803902761528,-228.72829411412724,135.51655860574309
0.7795973738994726,1.8986727193557758,-1.3499376309681166,-77.38267983631064,14.983659402682454,5.944888234883649
-0.5412476062289068,0.2093989323913017,0.4480669851316066,50.24519669931111,3.9351559026466196,5.169592836521446
0.13868192418254482,0.4972874479863857,0.5051160639706604,-0.5589694638399378,-20.86130024770796,-45.61687538026307
0.7736420995762006,0.19805685859852185,-0.9590734412431121,161.92551483864258,25.46522511200751,-128.94804583201628
-0.30278809953506636,0.19722911698679665,0.09666913904469213,14.728208158546382,13.225468349872722,84.8429012679734
-0.3450516025480647,0.1823697780196175,-1.426350802322578,-34.031606741724076,-111.62164500929156,-18.471671999199867
-0.023077508059121288,-0.28547522852100876,1.87792627701262,-60.122005946075426,-245.10692009601195,11.730495299094455
1.4918262820146264,1.2476991668504507,-1.4131006055988131,61.64222919525882,5.191013183122121,-86.65433112755545
-0.7003943870551927,0.25485902778757163,-1.1442327579841929,-26.35637386372646,5.846358304929004,3.6827079854248232
-0.06759976225902253,0.6033317407904477,-0.8035126711918579,-101.62129330313049,17.702913739726053,68.7201773799427
0.12186104342690005,0.8475560210250432,0.142386985604932,15.022922710174342,39.13953040595521,-13.03140202725621
0.703093551058503,-0.1186753350890587,-1.4436233846697626,-40.706851288410036,-140.1953532921304,9.523679233959912
0.8868009813052207,0.688248484581938,0.1789918743744544,-12.26089358348604,63.20430995467554,-191.55902192830206
-0.544635632501598,-0.3787123638984955,0.26270336167758124,14.92825923143487,28.304363954917534,-79.74063203682161
0.21696299200008717,1.5162517867030636,0.8513529203790916,-14.122605827665115,11.617326344910222,43.06311962734732
-1.1725983886554299,1.0646350091518717,0.7276392860547328,15.080561577848268,-2.1350179883623586,38.55393829117192
-0.07533880559764455,-0.6568909479255227,-1.0978517046717446,26.84539212116396,140.51154572841298,-35.1460718685068
0.5965680485349648,0.4992668203688265,-0.6105541104973762,-48.81496276127721,10.304954967211671,150.8795801023998
0.3825158681519509,0.8785854954270549,1.3179884559897816,20.707823168449945,0.09929911926072554,-10.859989899242068
0.7870415775682105,1.0837509925613535,0.6119439550784349,12.277441691731283,-72.31073957399052,-28.114918040920006
-0.3370303392020559,1.3116410884621668,-0.25837215166738076,-10.084588480926364,206.8874119051992,48.34647532344487
0.8802793787598777,0.5071012560342392,-0.41477397418714623,11.154671946500736,31.04117814969416,66.5957658614598
0.6950102160531283,1.1112776648610103,1.5282499260868265,12.21836955328009,-49.85284562813442,-16.950753957755747
0.14344978333105501,-0.07987834223628848,-0.863773757921819,63.659669213188536,43.90117384686778,-8.375955214527858
1.0699644200549532,-0.3305333627263797,0.5818910896914402,-19.49632184985438,8.927397002970524,20.499413517297462
0.128331549711049,1.1461961739166107,-0.10967933176147676,-116.3419011996302,22.03668723871198,26.57305974803565
1.4730406238346423,0.7720846260791543,-1.669233160600394,-16.317393372883842,194.48782720967253,69.1172641617974
-0.6820271687187927,0.2295172577682971,-1.2572352380887528,-55.69889312961091,-69.8668148184842,61.52216216362038
-0.3250390407819176,-0.3682018362903261,-0.6851276005643447,-21.577640634550132,55.64791681487826,31.856428937403095
0.9794778124104577,0.9976560308061533,-0.29103669880888783,-21.134659175914393,-13.548552999348717,89.02805450066337
0.8538252718101904,1.006595308437046,-0.34471483353571925,-86.58020154656012,-113.14455846000453,-12.296977551065394
-0.7788868401008529,1.4923040595184927,2.143391996110615,-33.19803890404923,8.32441305843973,-20.277840084354718
1.2360652852200977,-0.04237856802599377,1.308507915102986,-28.485625723360624,-19.995190346331462,-21.894109100029347
1.2654731637078194,0.07545424936424205,0.33071296405251266,-12.251255815111051,21.431698898348383,41.186251310917704
-0.2744305470332461,0.22771723396087284,0.7724564829661205,142.9223446700421,-13.504934350653624,-28.798121342786427
-0.4720590683727348,1.3522960782242572,-0.687944183235503,15.212831757160393,11.001905331867277,20.879163593536603
-0.46330486384122893,0.5229385900107921,-0.34776172650895537,-38.241996072576676,0.6008201265757075,17.103120377001126
0.16097880596465342,0.13294756799857144,1.312852199908794,-18.141114352939397,-6.71517042920514,-105.8509166305757
-0.6924610197527222,0.5853362534760278,-1.3170476652675656,-12.068312202681362,56.91434764107242,2.421469693526463
-0.40220732406127313,-0.09097826751719107,0.17397869906028385,4.2675493543845695,-45.66976250817344,14.449713281997894
1.401560534670506,1.2968832489478435,1.332971338847091,-20.969328104077626,-36.679312945750226,56.08469411708082
1.130417124894253,-0.30064971414707303,0.2068667826525422,1.744616565293398,-60.5263661044199,-18.398210599364926
0.04107318230128698,0.492756288560687,-0.46370567543886354,41.963966531299086,31.80085100539057,50.90265806963634
-1.4984069875950154,-0.3947523596750411,0.09219463719684212,39.6195490221123,-93.0002530710964,-57.970362985642645
1.1676598480867275,1.6656006092637092,0.2820626476914321,-52.96115945966571,140.55990467618193,-99.62731530585035
1.2606548363162355,1.1071461599714647,1.5979154317079431,-22.54919988479717,173.2463873392255,35.072538229185184
1.30277402645224,0.19166085191171056,-0.9091381953200884,53.43238616453305,-60.45423757116636,23.501925764630656
-0.5441028908693136,1.2666746038026924,1.4922223878437204,30.501115235696602,-9.7208642216113,3.3601205483758254
-0.0762855359010437,0.13424391582424378,-0.2551401618149569,6.947529321929595,1.5295110883261984,12.207381580060911
1.1046946395253123,0.6119396774378795,3.1200661712587743,-7.388892175860653,-36.937863023142704,-63.526287536592264
-1.5229651724574333,-0.7756467560348819,-0.8857143888644597,-10.455570642331807,-89.19901776979657,-11.485070747069166
-0.1448676400334552,0.5470703717367084,-1.1122148459297396,20.74875623028281,-0.8292212294470682,14.988644066934794
1.197934135828539,-0.8169412971803541,0.6782910022109033,-8.948509868029989,-12.550828792336127,-58.00252936671855
-1.554131655852715,0.6308728695026945,-0.3748744169247086,-58.256301987553634,-49.96594802644454,35.61531785678475
-0.13710891080052523,-1.076329529529564,1.028711238427365,-0.476269294329814,6.848517264427514,-118.45780827931658
-0.06396747029051852,-0.01711173980512637,-0.03677873785277705,-138.34929001084478,-32.490551744520616,57.47895586142761
0.27679900111196737,0.5796472419435614,0.8322657913922792,-28.25766339918196,-8.24252110803059,-5.772197787114967
-1.2250417214021714,0.7619575653611272,0.454150819988844,8.291869665545766,15.036909135095588,-36.543835500329315
2.122330215193753,-0.24466593020079697,0.5463846697103865,0.9236409242508751,-49.29188874249678,80.07920317257015
0.18751794940948582,0.9350818610663658,1.6369979023893848,-27.84469918940065,21.895727469079915,-10.055858373095552
-1.0970371065651343,0.2122193359338312,0.15792727043362423,1.7419002214624528,-46.43172343435356,41.76850824869541
-0.5983063503413069,3.252790888223341,0.08428770378309336,19.257522194607375,8.771822175176174,-4.828795093655182
-0.11011859153569986,1.2057637655960574,-1.4739670460778251,25.267745350743645,6.6218746142454465,-6.150103819917172
-0.45835223230885247,0.3442942828448484,-1.0239459876125716,20.417909659512482,-7.525277701907621,-9.829907518370515
0.9144978508904062,-0.9306213904218568,-0.6127566968536035,103.95627930854965,-35.68323066005419,-18.7561021183143
2.358361032304124,-1.950637885728683,-0.19025277877673602,31.460902311068832,65.52164810680664,38.07311146979372
0.4959961548138646,0.7501353932892179,-0.34456811856822916,26.79098465996903,-68.26015573904598,-23.36914707450055
-1.5094570330871746,-0.25825498556751264,0.24173128892842013,-11.762358695142392,-0.22345601698791118,12.204636386553217
-0.906691580634561,1.4828618042259345,-0.09431193012958644,32.07475231162173,-21.892228739509463,40.57988617001434
-0.04110091202940036,1.1970958250301984,-0.0004969600303010302,48.27984842086477,226.47037468806357,64.46355270560812
0.17625937512506326,0.6660025626696244,0.40072212938830387,108.66049756305539,35.091614983027014,-60.369827207069875
0.49084316189654653,1.4299214610247564,-0.46619266566906914,-75.46237246403241,18.133536659597848,57.160056547652445
1.2823454880040874,-0.6421287170070359,0.18413785201014046,23.440007826225045,35.77379482380358,-98.79420443339767
0.813001096806799,-0.6302488092955535,-0.6787300482442136,118.48613658308983,34.18206378419109,-131.55756236243954
1.409082932581558,1.2874602837981584,0.690140202533779,-11.384650460441762,-11.699635980649187,10.438418528492836
-2.1785903847991315,-0.2439988368038274,-0.0027086368722084586,48.71232643115848,27.275421087399604,0.04796686952889889
2.1544396809027404,-1.9575870336286825,-0.12418302363446596,31.663688199155335,4.113546390528535,-4.763074647087632
0.607579330785295,0.39829523476424594,0.33818673537696287,10.634499232557301,0.4627510693608461,12.841336176074902
-0.6288857798192062,0.023009802871337012,-0.03881425705703284,-26.433799375342637,-162.06605474892365,-32.64578039718888
0.5001643711182021,1.0893084392544712,0.8475656391017149,-13.348694612922285,-16.635859166843698,-20.34834376638477
0.7011697244202513,-0.6817212109066593,0.20366299560629966,85.56500179578796,13.173650206376784,-55.75672695971815
0.5866627516912688,-0.3001732213464129,0.7409161636887674,17.780599943830694,-6.092441368391597,-7.8472875225115555
-1.7777490960934244,-0.012703029423541207,-0.5019875742827273,-21.170481811021965,-65.41627979950957,142.25491723493158
1.1157981939050818,0.06705649562129545,-0.9304391226844108,34.5295057853783,-17.57443692897232,12.637116440316937
-1.4354732714495162,0.4653670619079042,-0.8051539171938475,92.3562224184197,-30.041630701817233,-62.312008470918116
-0.5253299552772095,0.5320354065797245,-0.17760864734092796,1.301149400118169,16.409521101409183,-19.65935716861896
-1.2714509641901839,-0.3835707333954721,-0.3968717713952274,5.5613965254974564,-3.5014670135095196,0.005088727014244038
1.5934274248327929,2.8659908995903964,-0.23421267984303112,39.74094710677964,4.043851460569739,-20.813319368397348
-1.764162590143982,-0.14148558664448493,0.8362174931380355,-63.93576722657576,2.338546328876507,-20.499700018971936
0.5987620137489819,1.6625377350895043,-0.03978940105973111,-0.4894290548705027,121.99120870576459,32.12522425564722
-0.03316596292202814,0.6512141730472499,0.666043023886119,-6.924028417078355,11.495309598140503,-12.364028029899112
-1.3571570206885553,0.29513493244994243,-0.3435342747036566,0.36355692163897835,-15.624285479145037,-19.169057238810726
-0.16555730332705718,0.4863990679941881,1.4429515481144588,-2.2395210404305965,121.97883729783732,5.3921952180506665
0.5134638380356131,-0.1404863314723661,-0.5900619666429288,-56.10043703555192,4.270081946839799,50.42242121912773
0.7580509320123335,-0.9817503163118517,1.3263288268501023,17.013651720848447,17.667912745458953,38.22336334638774
1.616478928846581,0.32754009522587135,1.1792386005136903,111.84450706797074,-15.3803279591117,-69.8555467510307
-0.6309401894705293,0.6472004357627732,0.7327677980124936,17.86534991973078,-22.23521169523184,-33.294989512488904
0.6752743536422191,0.11180157022052756,-0.04628481765895087,37.22085000166496,-8.181663315016475,-3.6830910641356622
-1.7390067923048895,-1.2795191525890788,0.7093359003771613,-11.727553233411228,-233.19309146070043,-135.93959303079612
1.7980822384911987,-0.4096368200107081,-0.2673363493023724,75.41827888926548,-65.5179164772432,50.860271907459904
1.9027718417873964,-0.5287927624497969,0.5726448518666625,89.91522223390389,45.62768127676607,-58.57810323333227
-0.8472400142304942,0.8540340644708511,-1.3335030543995416,-44.64267111114967,-9.551706129759163,29.622654605313315
1.395820504389597,-0.8779288546123483,0.3116316847699726,23.9311302786133,-22.0767019064256,73.38132468097434
-0.1195520150354258,0.9223575273707203,-1.7069698971586358,6.3898869456872305,8.482649575956378,20.23982609849801
1.2372982050361707,1.4273966052921327,0.5773328601530436,29.184964520644716,-28.46889600322017,-9.751693853507028
1.3232439945145948,0.18515072812231056,0.4270474429249904,-15.682677193553367,-31.601197004728466,35.53021346015703
-1.0251854161586524,0.9985179990603553,0.9775592892628744,65.4824675970157,-13.817495198834555,60.53878078255658
0.048338839210574414,-0.44775987082602986,0.5698369123558478,108.09926729639731,51.857865725474056,20.129770473240598
0.03832727676149,1.3966881905291806,-0.3547012001309834,15.791280547484195,38.577041283586006,13.460692187080495
0.6282514455994851,0.7395124281965422,1.3176873126688455,12.599430033614889,3.991660152983573,22.857209388636406
-1.9557685600771186,0.3005439355589985,0.7775148657032276,72.06897674084178,-249.8558965157583,-249.89629368683615
1.354028336991525,0.9389335995597249,-0.5890797898722128,-21.031359085162023,-23.286225135975368,121.42328203908458
-1.3887375790186702,0.36140858213130245,-0.22799872441520214,41.57983415169718,-55.012924537586336,-38.33627484929826
0.7758464763796508,0.5125847759811963,-0.29082277826622166,64.02108123054593,-0.3026065059153674,-27.919663087643965
1.3509381715453173,1.0227470404457142,-1.4948011198954254,29.141764538890467,130.97863841899414,-81.55673559677501
0.29410519776790445,0.4290753646334039,0.720942360756604,-29.259610886675873,-23.735167933856516,-57.26160122011033
-1.8528974110304044,0.40716703968429035,0.5810358702923748,-10.743183863213071,-15.511499116825295,2.3548892919790716
-0.01533550110428128,-0.2396656873696485,-0.7632794679716056,-10.097111262231946,-25.351385415472123,-18.23028097464277
1.047965331558218,0.5236404255932896,1.0755455850871078,-22.161489663352206,1.1972573436444796,-4.279908931680691
1.592779675988166,-1.4663612708495517,0.2636403762692262,-70.17808083192885,20.10875823957154,94.82751223588065
0.2276331052750595,0.13281720695122246,0.25492314307571007,15.730052707915277,-35.21453225294164,12.37950298012744
-0.8957554064689539,-0.05081721570564915,1.074757364582216,117.50158933718971,65.71859548764573,-15.367568486938396
-0.01562830182739469,-0.24332565402926914,0.20886118059439596,2.2889470676767694,-39.38877303269827,-26.430889871113866
-0.5015871352782664,1.810862938136011,-0.0901164107504906,-22.29761319529276,-14.54435841133697,-188.71128359198514
-0.31805688953186406,-0.30501917808403367,0.29198672101810325,-59.39031208332641,189.43457495477784,35.12443148426069
-0.4681529281570799,1.491183251756085,1.1014495044251884,219.8536923323697,-35.82819506381061,-11.462278403925914
2.240875584499501,0.9225007105403155,0.692041059569615,37.07387697847014,-2.8494748733105553,46.53740574164753
-0.9222710976726219,0.6871490804241369,-1.4701087077492534,6.567335953433037,-16.185441381789307,-2.43824668370574
0.5026987961294191,-0.4668272380849253,0.403204305466296,-41.97322246423789,26.219981557100823,-27.150160913593268
0.8285808647381923,0.28957429261875933,-0.3709974705780984,-15.994123027050447,-25.75360887618311,-25.95932881180455
-0.3952088717886675,1.5558355447197887,-1.7226714936920597,-24.984647831224343,-127.18280894388754,-21.821514379403503
-0.9310553065249514,-0.07070629271795281,-0.22765752934793915,32.244118227296816,29.20157962146411,49.25919890300154
-0.7073799016522205,0.018941165018484293,0.650624780545281,8.922105720373342,2.182313061548796,-93.54865621084058
-0.4504143186624706,1.3213649938304735,-0.07779487858687793,32.94189426534871,18.877099771605103,-3.138359103575917
-0.964444831164497,0.6059258385527002,-1.8510748757994695,152.44830316928264,-77.63433782033445,-203.47080963834827
-0.6428405819575541,-0.4865720874806915,-0.6509205409180162,15.96862363268418,-7.442730560908169,-36.993691324179494
0.04317409882996384,1.0581871669744936,-0.28868619757735287,-4.2218556211600875,15.94299542372059,-12.59830486322139
-0.8250596289473338,0.21353633416552498,0.19212435228491392,7.887777146430725,3.8463605592830623,1.493326582922092
1.872600582304717,-1.1135465500675585,-0.1065947263645855,10.499083341987898,116.71149876713771,-27.64242571480157
1.518001626070908,-0.4572357287864494,0.02052544680524558,-45.11365193636778,25.804783907584106,-6.518303161026317
1.6121260608958343,1.0511263261366677,-1.4547476172348923,10.340854576365944,152.84797608656052,52.65375992030715
0.09361506043714524,-0.04896522335548642,-2.6510680444358505,-9.006240526417486,56.81550417153374,13.897530731634376
0.1937352912153525,0.05556331888568383,0.07149947364715753,-4.418830692512591,-30.519842868052123,86.7823183650431
1.1048512801663797,-1.2535762086564595,0.11128179157850521,99.60062124618923,-11.127995037774019,-19.29980058070793
0.2985443077425874,0.6365801656047854,-1.408783305145812,22.749101099932428,20.14137746644229,-60.8971159380807
-0.2933243554803331,0.8414326510398218,0.28361039073989686,16.363888645770984,-16.45907442427494,12.875155768899367
0.34843081240343654,-0.7625855745939838,-1.4211801131792068,9.815712980599233,130.58533947895754,-12.1814368793971
-1.3709462671616002,-0.26108609958176765,0.9842974921152982,4.451022651156119,-19.563821498772512,132.32184141951566
1.0446068016528625,0.9245006742601818,-2.1714544243663787,1.3148338560246082,1.4554072774062794,20.744901189214882
-1.2171390557557773,1.0808180319219267,0.2135817072055053,-17.113238866429146,28.277977664223997,-27.141617164014985
1.7327052587983078,-0.7470820156416907,-0.6463689925711067,-76.2444857075502,-14.320480454235115,71.41664052182793
-0.33738653987294986,1.8529363931902672,-0.33485692208794515,-25.65398416208034,17.48073534362775,10.550183301180873
1.6174068015101988,0.4424433712489397,0.4131522169208892,-8.948135869932864,2.9581886589454873,33.663061007031196
-0.08339011866663185,-0.9455863408649094,0.19101289268111132,-32.77978064034217,34.88179983797295,5.694248200641002
0.3977292880977371,0.3763302729783332,-0.017073116454046522,-56.786474818581596,-69.25360235714855,168.8267122401383
-1.6217518460135762,0.7752619277601136,-0.1705584023765524,12.057556409709266,11.02668235359571,-74.65533873900307
0.9486178171095487,0.7263753411417924,1.3700698670718316,-64.12908287130847,-196.69103114304394,-11.637131043334156
-1.3953438002277718,-1.250068659124571,-0.764393279152275,54.989627569638486,-7.955537931475713,30.67570223518615
1.2816693154057617,-0.27977198163062594,-0.6620987581280617,-101.54734773699069,9.233126906344888,116.85861540005396
-1.255366320896111,-0.8004389049998577,0.675552896602702,6.931173563726574,2.005358777997218,-53.61890682990949
0.1633194606098468,0.0820672113765106,-0.8688187531947167,14.014351500682631,0.14051227720464615,-29.707775599374866
-1.0171213758830668,-0.05446297077483264,1.9371987335020644,-24.62344420190794,-2.278399849712601,-1.1322527225955383
-0.04404754061500063,-0.01064929094625422,-0.2747241189986689,-17.451656882759174,-33.206713487653474,-17.15387423351698
-0.21338193377725123,0.4741048560390808,-0.04933644790172109,-5.020929596418339,5.588329024379563,67.53671187092992
-0.3224466990899926,1.49446553534624,2.4155903302602666,-32.767613996297705,-115.47693785764223,1.7531113502601452
-1.7987029487687598,0.8749894864174202,0.6749239111440635,34.09909172081598,67.16942859981988,122.61881189666244
0.344759367874373,-0.1102822055199274,-0.4291360915177306,10.302759506353972,-9.973764912989214,-104.74944186277743
-1.108570596248518,-0.3040263286571424,1.24438919335134,46.714146410356285,70.8624430692438,214.86393114089555
-0.151530906098448,0.16330775103772113,-0.762876165656283,-222.98071570532852,59.35308061388154,-34.75725462947728
-0.5874312171439882,1.653742242615262,-0.08659756037672942,11.172987188229195,-46.59670193484491,36.72694757481934
0.9203850368899943,1.1518610878705389,2.104666549440153,28.613830379813532,12.357697191607448,-41.90881134522571
-0.225443560724442,1.9781647059260425,1.8722789473639334,3.872022094830567,3.934033540490092,-14.561472268918765
-0.5048266355599964,0.7038270439298872,-0.4743206174713194,35.50367100584827,112.01157590375193,30.075373897606937
-0.4608777041534129,2.392351671269096,-0.8626060805519089,-15.342222617658278,48.6967433983418,2.9732965433872067
0.6861812769528111,0.9471994419917138,1.4037529063409273,-46.036172563509105,-11.507163319826411,8.644591530979023
-0.9874748778314553,-1.4037042281005103,0.7366027973001033,6.654802979373721,-11.994176188713004,-93.5303905461473
0.3867486218988221,2.198444440563417,1.084150362738176,80.88178080951366,34.06235965228538,7.7140594375084435
-0.12507462531543886,0.09213584935334584,-0.01171934380669526,33.151922046761285,33.80126758773622,-4.754309433664771
-0.10704888051644816,1.2494067057313578,-0.2983915333305889,-1.459078942952064,-7.044667095781509,6.923650292022998
-0.6686517657906326,1.7294113744670234,0.4853504329764836,37.4967251808835,0.09955350830576748,-64.50388965531357
0.9400234502197143,0.41860941902399545,0.09875063039370541,6.811106537160188,-38.02611976955087,-20.48217327848333
0.7283265097913513,-0.3226878851705811,-0.3826136518257436,-43.505033219930176,77.03637218194342,0.501920062307702
-1.586459021765251,-1.2841002864496516,1.0379656999316564,-16.29450495830484,118.68329624252233,7.8823236469203515
-0.40352342182045986,0.3305868322396768,0.05895584239893874,50.89409036009781,32.67287148743557,-19.35124854687918
0.6877438320125955,1.4089758204229559,0.0735058784514876,8.161504631450157,6.732415591915865,21.657765192367602
-0.31172517891019536,-0.04450256977535745,0.6890099451667037,11.215689956668019,177.97612588706994,80.17520445689125
0.5652528280733344,0.567832750933125,-0.8790803868041855,22.22477989512188,-1.5621586418595397,0.8358834651096754
-0.5936079499161925,0.900124614214876,0.8464202503392426,40.981392137085194,10.66156924212278,-1.9448252099845158
-0.30070930837169635,0.9879603693992614,-0.15679936411853168,-128.09259642353987,21.61286261846879,-37.38080195890452
2.3536308929867022,-0.0029766982776982254,-0.7982033836735404,58.04212048615985,52.06856915762553,-97.48761699386625
-0.8902749817780617,-0.6239874095570138,0.1729562346972637,1.1246362352574857,6.726040910286908,5.715698220206404
-0.5562269072292347,0.6406980975171417,-0.8540600619281219,29.385329638041476,226.59200429018918,-16.457810156428305
1.283618786675168,-0.4294399227256203,-0.03327253190901008,-69.74206414133418,-13.656581224151907,156.85018759144592
1.9784992561208075,-0.8599313357118672,0.48008332778420243,125.07013555025776,-103.9659990534357,-97.36585526352323
-0.8023391485408771,0.335611344231566,1.1086716173026108,0.8192762778669493,0.9402018824198373,-24.526251396489425
-0.6062193783871429,0.44239355428982,-0.2928963579861633,-13.190703906342357,-26.282676179003527,180.68830069484778
0.5118511647736158,1.4079515366212008,-0.10209911268439736,50.29717085277995,9.20788332674924,-52.88897637429973
1.693298935212932,0.5521504999307195,0.9090545247852535,73.03221886859305,2.60061648542107,-58.839575750607516
0.033109297477945096,1.9312614593831021,0.5902490978533096,22.795870311131324,1.8351723040559924,-51.93594334293924
-1.5122150506071272,-0.056683565062666696,1.1207769284225289,-33.01687458548093,-142.54872981777433,-61.658423465355376
-0.36505470305707466,-0.9065890654777805,-1.5797677557283611,69.08936174990325,-94.28952030306131,-5.453825424449458
-0.6602551590600206,0.4977956271986538,-1.672868455669442,27.273871018913958,11.947112801219124,-9.745191778707676
-0.13331614619546228,1.2577024668556023,-0.24701207259268798,-36.702202517531646,-84.60143243537779,-66.31398913451048
0.005050956459954195,1.5373678666792756,-0.18938603028810508,40.952978606427386,-38.557149184710326,26.059580966413478
-0.13009591561600004,0.05912807577106083,-0.800735111083743,-13.666027626633179,55.1221783345421,27.03829870333126
-1.3579279583265549,0.4658591745235957,0.26438879726545617,1.6273549146559818,61.89999639637369,78.03650390321532
1.4880552165640095,0.16231102909543826,0.15862910788818224,70.27904277291599,-15.142034894275142,-28.277747057747185
0.21550961826190856,0.32598276527273945,-0.5580526970443193,-43.06783453340599,-7.790875437721187,31.436191007432573
-0.7960805840474012,-0.12239466441282998,0.5130334733078896,-127.69213592719994,142.56328897665577,-96.03566639946321
0.036689615557833594,-0.745481724280767,-2.360067983075032,56.92388215319591,50.99469670517811,-27.35393964012849
-1.7435619280348944,-0.21936948172271942,0.10685874073353366,38.803069221931146,-2.498224134584364,25.212009082731186
0.2309928595390555,1.268772066665164,-0.004569837662647763,-86.95007831237507,12.076260889067145,14.940265970751025
-1.6298202388293084,2.5422644387339197,1.082837425805515,62.25048395527488,36.29873495364136,36.353735555855295
-1.8406849853813512,-0.4485758022714718,0.5733246143855928,14.797582082668553,22.34290307384629,115.389926671461
-0.005156389305902398,0.7488472651571423,0.7321136717334562,27.775526915531966,141.42592861422366,101.2398737451608
0.683373189869144,0.20465211191760502,-1.2615823280058007,-21.823060052985237,-45.40759331028124,18.29022977079313
-1.6805059026284066,-0.1356397848321008,-0.7728328542602322,27.485640822904347,3.7979212655569685,16.565732090909336
-0.4985444830511994,0.5610503186697142,1.1354505159870392,-7.2280272799820855,-0.6705278691826191,-40.06234206611271
1.1247194321677607,-0.3933672630612485,0.5396421183420812,78.80146823658629,-8.01853220930667,-75.59106238888896
0.09865170821575403,0.7847197073312834,1.4633112807139783,29.83730156410488,-50.51123750154641,-42.60666960696483
1.4450474582359032,0.5070399517822863,0.297164822716145,-8.973027409281292,4.772569446138453,-7.039504892141148
-1.0425373911784424,-0.38189556986435935,0.5694912290525758,7.056763918257533,-18.190294792171617,30.561431206784757
0.4336328699579904,1.2923082747183545,-0.5780665301913336,-12.163358819470044,108.68465480990562,-67.43105830671584
0.9869461063214074,0.6953056186570163,-0.2619508354975023,15.846458873547157,-79.2971434355334,21.78897758603353
1.0876393489378322,0.4982202210330453,-0.8651111258232786,30.302345621513762,18.03575962880564,-135.22292710991516
-1.3056350189580943,1.8288413603276648,-0.058845834993241086,-50.115690589904624,125.17894415664497,-35.16129995233788
0.5316818603659565,0.854566927469494,0.6414951752580669,32.872437863900515,20.015787555285755,-115.12071221091782
0.04208618483043433,1.6916286575718815,-0.6787875995581009,37.426507325002255,-78.58911901733948,9.161421203651983
0.22982271526774345,0.4421616787724856,0.7789027550830624,-13.856942808378102,11.399182494129224,55.22839601497525
-0.29582907095835137,1.811413540469311,-1.5614642407339443,45.40130248756173,-146.1317280066812,-71.73881906911001
-1.2038557729010473,0.6450221535440565,0.059707341209673415,-18.845161017462157,-11.85434129053552,-9.973829925836538
1.065398134891518,1.361514418890624,0.31647476328161733,71.94222662894863,22.28376081864873,-24.296916426714276
-0.6177999949745507,1.2189361529720772,0.7750396796221772,11.52084567138057,81.23307024488938,28.08381029105382
0.6499432923491848,2.1325526772904557,-0.5910551491971265,85.24821897874564,-152.1816651850369,113.54704151978187
0.20467681683432226,0.804688697228694,-1.0121392373731508,7.562641115715908,3.962260921815167,3.0241517142197405
0.4425763909465743,0.3483128420926312,1.4196531000432018,-112.99091111875074,251.30151546257835,11.25899794386034
-1.0442357086182297,0.9707100023428004,-0.4812301440956946,-24.31611426737062,52.79370259622215,11.571502503827178
-1.600617934863776,-1.2809022620250137,-1.6100398152375184,8.061469585720616,-6.379338762718956,63.24843653285734
1.127396840653226,0.6193439247278134,-0.3827613548678415,27.20974534371963,0.6071207994108244,-29.655695482544427
0.9828505419578966,1.6594100119055515,0.16248738624022802,-32.12212547634386,-6.492419403267438,78.42633241017921
0.14381579979995446,0.6573179656460336,0.09986840322147067,-3.260131278026107,20.444335169755167,43.461480744078074
1.0051435557358535,-0.21326955927229752,-0.7830624495062297,48.28272399985884,48.37524980685835,13.948114323298944
0.8191563584410286,0.5062152549612952,1.3628553452373757,-38.793525779318664,39.500655661301415,-1.0981443965157727
1.0509681131713937,1.8700822431970838,0.1591697889210536,188.9288306790262,40.455494052959565,-90.80789503724239
0.5413609527956836,1.9194658777413753,-0.11713680728270459,36.41169798472599,-60.42036825567666,-30.96376012753888
1.1165420973468483,0.46003798893046816,-1.3852967929972064,47.62089626663728,70.09509314006047,91.04395872530674
-1.2859939553268118,0.7200942244109261,0.31731518602155917,-2.6706428634418033,48.26204007934008,38.52731515658651
-0.35986886855755584,1.2565880725243606,0.10825547419334916,44.913677714180665,169.17474434386693,61.92209787878986
-0.12685982626065087,1.3644536869656205,-0.9747263864137976,-11.948388051928045,-23.579000600127326,18.753240609631213
0.3340501662199802,0.6119014073539253,0.7766166657697005,7.93229919032046,43.85984034437949,11.120630815114009
-0.2031082337524608,0.35668963097007855,1.0773606642803073,-33.55244281486964,4.7368289376804045,6.883149454841765
0.5598273513338888,0.08006936193550229,-0.7086931009192151,-17.18533487055562,32.27897580955224,18.57459025398651
-0.27785035177240813,0.9975817565546694,1.4918975048815049,15.32967436828602,18.578884991913522,12.924004581594245
-0.4096093396354529,0.496898533836184,-0.7379778934739119,66.39943467493595,117.47529130002799,-87.13698340128389
-0.5912103933091117,0.6966745444840432,-0.6191775188009772,-8.509165798737433,28.21547327944395,48.1938111875094
1.3153515189972649,-0.6048647510766803,0.03076007246513204,-6.665228691623096,-27.30796028143234,80.06330088269209
1.035048591830079,-0.09989747647421587,0.03264262121907979,-72.5452297033264,-27.262526259417292,132.04075039076645
0.6859622492324629,0.23014045422428714,1.7990883882333484,8.984847916873479,1.059364422365296,18.475322538914508
-0.34074207287700087,1.415997672173231,2.123665397436388,-11.824530614339825,-2.043517758143002,20.907696894970506
0.4429019011004872,2.2751496782176748,0.821074905517458,192.08067837303395,55.73005815260066,-18.197470790840875
-0.8602414301747788,0.21572158971177294,-0.6277786925361645,-2.61350740177891,-20.071674761665086,-34.92236748049115
-1.0780547815532182,1.4031280764260676,-0.21294768430207633,-5.380339811525979,-85.23293636623532,-1.809891858742565
0.6680334706398249,0.42957623034618725,-0.5475863445842287,22.73345402978556,-9.761003122054078,-5.019205983713546
-0.4335289993107553,0.24024954714904126,-1.3051637407495065,24.728376370044693,-29.34123408560526,-7.9821268991133705
-0.11251712288839519,0.5066567001160296,0.12420164265706102,22.060581613674,18.317369836638186,-24.131134023846506
-1.1693749399284115,0.292926817171109,0.932970578678053,20.67511834509588,-5.173781134083762,20.172923497260694
-0.16016669386639992,0.5469166103868695,-0.12505333784289183,-36.885315265600234,-85.19964522051964,196.74718015552622
-1.3238392890896222,1.5413065406683448,0.09843821670795158,-35.787258946052496,28.037521233334125,-17.488775329517484
1.7102337592174233,0.2551873633547247,1.051425091703152,80.04029990033091,-30.798492963564552,-74.67684550424644
-0.33678975769298825,1.171184238460488,0.21438701906693464,35.785443496763804,51.791182252636794,14.937794245593125
-1.1318386434825223,-0.4436757441027581,-0.6170907039503717,20.174371558644005,-149.74650745333753,-2.6269096780004175
-0.5750805031098682,0.5508429639679956,-0.7070266707763033,-31.988612714318794,-64.88968250129734,20.940674170193326
-0.07106017572629317,0.693534644661375,-1.036929121879945,-12.635924850812318,-18.821641706371622,-13.905843741478192
-1.4558778249762396,-0.5056786542643746,0.2060031902063307,31.46244715930241,113.91890900807896,30.362327211314593
-0.6343198743680465,0.10562200947388242,-0.26722107885281793,-89.7003870039096,18.844844555692436,105.05543403507072
0.45555367387918017,-0.3079275852977301,-0.5584730215344831,-8.930804334781495,-54.146782963682945,23.058614944128596
0.1833936617041989,0.25437882471943885,-1.0415057546121829,24.838843346884094,-12.440082362990589,20.729080301556003
0.35035635378972174,0.35734779048029675,-0.21602062851909312,118.89131688370004,5.661570837041375,-82.5386783779871
-0.4938060542071366,0.4645230350820114,0.05318868848382485,16.58146701407571,-10.182841707074479,5.686923106471831
-0.24301955672035533,0.40819302463005763,-0.9378768959593828,-4.499933121808836,8.873622353697902,-25.73570694607928
1.310525321093372,-0.08597773338658599,0.020647505124379545,-32.6943773302868,3.42754861305092,30.882445679640433
-0.11350759476906809,1.4230160426507037,1.3445908556190689,18.4771338613132,16.727249804757438,41.90587453799148
0.06384304942245983,0.021097581830703704,-1.15346915835364,37.307350366534884,-163.72645827149742,37.6272395763122
0.13536478874826918,-0.603103775649296,-1.1334138889559646,5.527628237803546,19.048680773193194,5.514918713997585
-0.15686665277111467,-0.27688040181618534,-1.5079637110972839,-41.170732955268946,-190.98279089707736,59.6723088786894
0.47003087411813477,-0.28448261827195376,0.5266033024622984,-83.8692425241565,-60.90449695487095,-0.38251490523588055
-0.3402775497945114,1.2846900326559243,-1.2495198312526026,-19.842197887040612,12.690018926372348,25.223326229824906
-0.9739704562819624,-0.5491276635881402,0.15136328917051425,38.56922744117313,4.014477186733138,-7.3568683111158855
-0.7229075584464874,1.2737267257490645,1.3628561969319777,-44.5630988723524,-248.66653222675413,-2.312855484761376
1.6613555795013073,-0.6018337625389262,-0.016445623851374658,5.424449617570369,55.024202156325615,36.39013186492425
-1.7853235083592105,-0.24619889065159467,0.8700143205349107,11.110562072192367,-8.237538150898823,6.60769212326659
1.858480542251597,-0.7892367216843904,1.0711137561726258,64.74343602575955,35.67099532080525,-78.90077918318715
-0.39945383246591437,0.2926422287541123,-1.2303436526620923,14.424776303879625,13.416218603755174,-29.90671792834234
0.7501125741377326,0.2754902721491078,1.0199944137554664,23.480533411796245,22.098465059689538,-30.137565706014698
0.22147143157399907,1.1829867463373558,-1.0780130483509023,25.899413054694744,35.8019219394659,52.68854098681466
0.3898593250153306,0.6014189542239161,1.1030008800724738,-0.8024892429344961,19.86837833715367,79.37502673441142
1.5833689337295913,-1.9515093642425683,-0.23646265601006883,-0.48700231761432133,0.2483818229475393,108.12264522042906
0.34524125058571653,0.9298965494119364,0.4607271397682493,27.34725361225777,29.88172790367917,9.462732755625106
0.023566334190518456,-0.8215039799617266,0.7390313670691486,-10.91232920558833,1.2099971418742603,-6.514747382515251
1.6546373143880446,0.92944387807805,1.5725528811556921,35.08238946089464,12.518409763194969,-6.350596841305258
-2.6246187628746735,-0.3871870396979874,0.03178848343164639,18.887325698192644,70.21273344437984,117.62548646589835
-0.14243435837764973,1.3400643857145416,-0.17534552438970866,-2.7485080559786366,-3.152212965696708,-0.8808751449058921
1.631910754755455,0.038305796328632735,0.11024278091410301,93.13482403001827,26.27729692755632,-119.63479023989701
0.1010278996887698,1.4454634703224156,-1.2920605889815153,-27.510928076924817,145.72315958253196,-4.368380121700611
1.8586982927598599,0.026904437991219998,0.18491849482346281,29.01154554303116,20.517556479846235,6.8613995736760405
1.0194347885007313,1.5576282071492178,0.39083015053295145,-100.60450090442535,-20.93859379083002,36.49632683797282
-0.7559470745111687,0.3855084264699939,0.43350138116813314,-4.083355368531214,-92.96642258750583,-23.51368176790247
0.8332241150241815,0.6196815120590871,0.5155909588343034,9.14903433085073,1.872750012639627,-5.452781371793447
-0.7111000718263341,0.5313890901545287,-0.8524645328732163,3.544465025880738,-111.95904545698903,20.83902382154744
0.8987251199965729,0.9320246596251445,0.25029825892244406,-143.83687397755133,-12.466402352798658,13.185658565565692
0.7914726533550293,0.3985947562359322,0.7881749093309893,5.216253634505052,-3.868447559528256,23.574630322631474
1.8294178541294528,0.6693995109314204,-0.04414112105170839,-7.589897058660256,-65.62562391884988,14.963426233568844
-1.2560779861813485,-0.4702702340317548,-0.15175937352390448,-19.087230060301764,77.10291568976092,-9.733672974022216
-0.4352415711051334,2.100729617988373,-0.5191589972640978,7.667035055598968,65.49406128659004,26.82986695102385
1.9714943154840237,0.09503695558616776,0.35405352226717257,-99.44176298227414,-47.86108586665773,18.357476203849735
-0.45324665389796964,-0.5573489207824719,0.3325677572022081,-19.135461008545615,58.86918255948124,65.62856936247411
-0.776241719119723,1.2180786930440264,-0.6494481734347259,25.788459810685936,-208.97187937416365,20.788028380598824
-1.0920128466951957,0.2229716586103924,0.09041499610668696,1.9864007683945302,-29.71050075998736,11.251878566834248
-0.8653866824738613,0.6174761892792842,-1.094359639271107,-92.44601059970319,130.54040439089215,43.83010054759001
0.33172499797479676,0.6481609341203446,0.9987110464039088,-33.958004685230634,81.79693188936133,-19.540652038437695
-0.4182005642225584,0.2995832932324155,-2.9597990760086246,28.626255125365134,26.787693181314616,10.134012682590345
1.2134877630128214,0.8281890495183806,-0.5890716287679665,23.905064111814443,-38.64499248402764,-76.37310555745016
0.3583050264647695,0.5360719009217354,1.2460441959264668,9.120863312290888,10.089456945657034,-45.23769849356363
-0.7525053196900945,1.6590752699790876,-1.024705530176102,-31.164452510019732,-78.80142029453792,-25.36373099177708
-0.2596716243029453,0.1613579388188433,0.1317174323579937,-10.359357369419486,5.080161009414828,-4.92377451784459
0.6715117561852841,1.253581362253958,0.7862191146129451,0.603023491219683,74.18045267979709,9.01485931175295
0.985714135524223,0.882834641297647,0.971409168104412,-64.80296114443837,55.43535683983546,86.54275348024643
1.4517628557252142,0.08904414493003715,-0.43964912220683544,92.42245696443348,12.07966492344407,-164.00050551302775
-1.127757458873477,0.012137214021809173,-0.40626657447570125,-16.82934600225836,17.385604070519356,4.131412584341982
0.543737073359752,-0.0705005403530895,1.3304256024435293,-0.5156208551999337,22.126840764938486,6.1296298110175185
-0.06071727331712998,1.7259530298298533,0.38319202127190344,2.612865215633638,-10.595351723843905,-11.439746230523642
1.1389701466059265,-0.2738479692793586,1.027808846864291,128.08177182352443,35.30658069008075,-113.38663381969326
0.3113191946379038,0.0154174167103589,0.6681899522931615,32.84835378060421,-31.693526702547828,23.97364217918248
-0.15374762392066027,0.1028993131959301,1.3528082970221846,-35.822390428952346,19.60244582477049,9.18884279501212
-0.7663708755220676,1.886304188257153,2.2897622414046888,25.34677813875825,-10.80842705691945,-2.5259959465442794
-0.8964349193003649,1.75166884428269,0.2854501865978343,11.661635552437925,41.15967097851037,-33.924763456139715
-1.4895671933438475,-0.5238385826855698,0.08084654005527325,19.969182501340736,-20.781954717683558,-74.69806518573675
0.6161284471766486,0.5324173776051373,-1.2578957975781353,-133.25551747078117,215.87732900845498,9.631048674253
0.1844765728264829,0.9308256008422205,-0.22094043492718013,-15.144774758350893,32.939427897022256,-19.92851310877175
-0.23721963474215743,0.7626418136192495,-1.8364171502374473,-130.39002565398516,-209.48557989033182,14.384166942352474
-3.3820618374680755,0.20570607540265756,0.07034308736608619,91.57268041221717,-18.953272477156503,27.94426771956137
1.4156715126782746,-0.27004038354365734,-0.17174205576519158,-38.3983038410045,17.21407959483499,129.79111155975028
-0.5555683923473209,0.31463262495008265,1.556609580964242,-31.225455344271282,-18.0822197598,-30.88756589495471
0.9987044941894299,0.6245450952837741,1.1255160863105202,4.65028112388092,-25.743557310703178,26.5144469555263
-0.8899959383964672,1.4822308361800474,-0.23314829351654098,56.2619408223695,4.96095178959304,-18.916127650521748
0.19268059442923563,0.7622085990621222,0.4388607284627152,90.82869957032162,-75.79946818467849,14.09485750524835
-0.8763066806479844,0.9808231728367414,-0.7063213355962239,8.803475080229964,34.52633990431918,127.10682454644554
1.2411330100116362,-0.9118364922635385,0.20032888741592556,-135.9944753112935,-64.52255100125407,109.26255499886064
-0.0559940755300625,1.1331090369935959,0.36454396684087176,29.680784410310675,-27.654677720550094,-1.9514879565045413
-0.8049608164537216,-0.17619298190626997,0.1564775651253148,-7.976572165235865,36.42646548213244,19.64236018548258
-0.12229605304569885,1.5349854839066235,1.6841317557051294,-2.2713690806401776,-30.47039882888998,-20.29215971429861
1.8207759284295122,-0.13599815260388698,0.0670431583333001,4.335206885653071,2.5061036653109783,-2.6108440181563566
0.6514368047378134,1.1866679311988617,-1.726687647584306,-32.829505616442745,1.6528466291919015,-53.785254163645284
-0.6953746817950143,0.2344741352325958,-2.207125479072287,22.909208117405605,-117.29257043077946,67.85517987056352
-1.188229716783235,-1.7348916854380723,0.6613446043769091,15.87280400217563,93.34958037872562,24.337948058072993
1.848628805114564,-0.15476191985267296,-1.1852202392102658,-63.961153929199284,0.7137592184555424,186.56319358714237
-0.39554872608023284,0.5208284444931844,0.6950355888008866,-11.654401200260738,-8.261720065802862,10.855557232305943
-0.9460072648056181,0.105569166061592,1.5667703631606695,39.562004014564835,6.67755464414694,7.6145920242804355
1.1938929750671274,-0.43686936617450345,-0.44749267350142796,139.14345991833264,10.587247882636515,-183.00459582312013
0.5280272401870549,-0.5650774845490929,0.20357141756928088,60.325841681734595,104.68623389132082,-21.434948612091627
1.141228811778137,0.26693265001762156,0.052533768177858375,-19.624320691131466,-33.58915682143292,-29.957409106799936
-0.4669773960365856,-1.338906954701629,-0.2853056921963806,46.192112668848274,112.57902600969734,19.12574980377362
-0.6488761871495513,-0.4035058216702365,0.4337298649613421,14.323627431665765,3.283180138733528,26.665811015405783
1.39968257672747,0.031520552552697145,1.3350571447011605,-88.85440138415407,-7.973461045408909,235.19057118030105
0.9362981026449749,1.076071511831784,0.24366731491668306,10.370295858414059,-8.51383249034172,16.26816166564855
-0.7421091302657965,-0.4782150453423216,0.9802693472065619,-4.972221536895019,-28.311490066173654,-14.046122331798275
-0.5044971625803836,0.33874963875266045,0.21020777601052787,-30.007492668763973,231.46398896139797,-5.510919155791332
0.028426701853366904,0.46303427962810806,0.25539477691529594,46.06976861540274,-30.684479607025224,3.40281569192167
-0.5644514744290139,0.7388739948928658,0.004023457799034069,32.40793360820297,53.72611505034297,-27.113507708387036
-1.8363802512790317,0.7532238313337837,-0.5499778335982372,73.86087186248831,171.7283886304409,-5.888993127597899
-0.4865921764584644,1.7731048452455584,-0.43371716871595184,21.609281624697285,-48.67610865067745,12.61249996409084
1.0126455310645073,-2.167448000369417,-0.9638705550941443,15.74271477260298,37.899775305398535,-4.115185990122671
-1.1179386514679084,-0.6559954048448529,0.6670282255496427,1.4165695428582517,-22.80488039630032,-12.639424459431588
-1.216290614028953,1.0405814514213165,-1.6692482230124273,31.501520601360202,-19.045751004244302,-12.955239375053281
0.21166030323002805,1.1007613854209557,0.417063552492783,-16.73440406627164,43.58761882606901,17.105830835751963
1.0911302349985001,0.19828766616661905,-0.9494268368707909,18.18337537426918,10.084576570647384,-48.55573413687204
0.5971362277512264,0.8716023640001798,0.24521704356863128,1.044617084888979,-107.15018810783317,-4.149152474217203
-1.6256777035405103,-0.06659069433680664,0.15628589829769876,45.33560275665767,-84.14822334616119,-49.99135766723488
0.7516478075415259,0.5692679448320145,-0.9977047995924315,-75.97670496656778,-35.56735478759344,115.70103726904568
0.3195978153606338,-0.005115155535888594,-0.018267599224098097,1.0278492182514682,1.5765831679546676,15.390733001666367
-0.1853287795831881,1.1442615791706732,0.7668827185390661,-172.05163417384605,51.56820843965492,-12.870241245264811
0.5914117340829567,0.3794394222272654,-0.443007940726207,-11.213388144008546,-1.7913156025395172,6.1353729899966245
0.37975994622605636,0.620183803482139,0.15950914453675202,3.2519983532848493,4.7642436167661035,-2.022138941898095
-1.2239759808791075,0.08052287536820474,0.3255835274632035,-22.485659526508023,84.51352575904782,1.83404499444811
-1.2207009430905733,-0.11429737833384387,0.2391335139522497,2.0797780988686405,-31.469634414874445,-43.33286795115275
-0.7459529039518126,-0.8802845504179384,-0.6805739279685006,-2.5922797464399583,101.56592405751549,36.73101958392961
-1.2382178417447196,-0.8859447470966397,-0.908042059919832,-14.893968705964468,-39.15378700805643,79.37354999210667
0.7162985564944302,0.19217723352381552,1.632768051193568,-62.426628717659675,60.86804314032076,14.737980979037339
0.5872190984948613,0.46858315596060784,0.41903817004438787,89.01380677694559,57.68645307299347,-164.06594806757306
-1.3082455643454607,0.6440630251412535,-0.6811713876334188,-69.55846263531625,-16.073341967981012,-56.39845121187742
-0.7418888872465523,2.4748100966453492,-0.2751988534214278,2.5915112722398206,39.151689967790006,-65.88315636577455
1.5495509922142492,0.546701188113368,0.5364293616888932,-106.58057813714531,29.393247845534113,222.40308605278898
0.9160532636423078,-0.2503916330608644,-0.030553005658953192,-18.395131612810907,-3.781762252598583,13.42626883141285
-0.031948215395104396,0.8597173867718728,0.5418066247379043,-118.85473650892365,35.568346013504865,-12.942663528616444
-0.03918770290604849,1.7613272870739558,-0.5465374090895244,-33.17474619355503,-11.510991206655847,7.429790456581791
-0.34828412612461057,0.44740309468146244,-0.9569747673800517,-39.74391759549304,-33.33983766422213,3.569938264002209
0.6234384979368576,1.282475604365551,-0.798120661277182,56.080687193326625,-116.9067006058217,25.72547459198876
1.2952384978504907,0.27629662977019487,0.35209046100274266,102.42907192900299,-22.945415249473445,-82.73131495135128
0.5855377317792043,0.7033372996512111,-0.6635304228234895,4.973622232194673,-125.28464623757331,1.0755401856083546
-0.6146836027162121,0.8818743710867148,0.0222392463148664,-22.92744776003818,-12.341866227059565,-50.30158928291544
1.887788511474869,1.0020027856647005,1.4645182391071747,62.04276239042059,182.72788289158848,-29.874037987906377
1.4535744988764603,-0.32836395596455153,-0.005888636594397839,26.208680636131092,5.24961098252622,-61.958338520897115
-1.998275228378775,-0.07028936166416369,0.1299326806532067,49.568378559477935,-26.57267753957943,7.474006080959715
0.6727036308724732,0.4887772828838975,0.2738394974403566,90.22164673020632,23.87462992996066,-85.93053460480063
-0.4695387710630369,-0.18089315918933202,1.2210829604782198,-18.90541485671633,66.61373580441568,29.384096402824586
-1.627514839279204,1.6633964318400807,1.5336283383192244,2.9896484137418295,21.015045507274273,-4.505935915166337
-1.0001989295562217,0.11236048565418366,-0.13707067428718556,42.40400731415485,-28.178708114784296,30.981304515622362
1.3849251324606233,0.3241723757802216,0.595887112575681,38.11090444859734,-56.15769577574554,-87.79676272327163
-1.2588826685659023,0.37138294454781584,0.3202750928516042,1.2723163484251638,-50.729502478567255,33.24845050060677
-1.2149180883419575,2.5229725880758322,-0.6072114147241345,48.79868267195572,25.072010290735815,-13.02521762395279
-0.7041305301484745,1.6407064199625205,-0.5337336485443716,86.89801251152446,11.484662402221987,-47.98263885377929
-0.37679241839086514,0.41035908997621945,-0.5389888350401615,-12.70424696140758,-18.51026211479395,-35.523551850189754
-0.6874218851727235,-0.5032962267283808,-0.9034411503521499,-23.858725369702736,-29.924803033838113,-2.694365269646172
0.11585746243310169,1.9080798107705408,0.13718530324200284,57.04216477678367,98.75245141136443,-11.850387492070174
-0.25483872941443153,0.17453710887083151,1.4207761186234908,4.446347116096272,26.060546565831856,-9.297949921211165
0.2731014445761528,-0.4071669400431712,-0.17242047259185944,5.272132234476353,3.6359306361264423,34.188540821885724
0.28468238793609685,0.7765851554068672,0.781906642066152,-14.234309973717778,-29.478215750993762,28.433161505605252
0.6295814438571633,-0.4860521396310126,-0.7389691418379197,-47.41765720105818,-38.91498252171533,80.87610753513052
-0.7931816214339623,1.0230120778625214,0.7728686091657154,17.06014369665577,6.214249988929304,39.88596993150265
0.38847930802934705,-0.2663905163654956,0.6058259819661718,-52.35798809898109,-5.449515652880766,99.70888058858941
-1.1916526206782454,0.8926747284592613,-0.858817144678602,38.46210584858158,-84.58092351092263,15.828137383881979
-0.4178678110961421,0.19707571736048618,0.15047666077286803,-21.5805009375403,-1.2918140700439817,8.625825908219724
-0.8752589424973132,0.17910825317949097,-0.42781027316636344,81.10795966848812,-250.68976710979223,83.94493732298828
1.4757756814325271,0.5376798023094811,-0.7176963185346072,49.590970672900774,5.47465164695991,-56.145318114320766
0.64258757234049,1.6824137108012205,0.6622871506957702,-147.67695980570105,-63.63502260159227,35.53387050758064
-0.30203899443989357,-0.4953044000296628,-0.35734190173340924,20.59476868115391,-18.2165002853294,5.004765094487353
0.5911146433855754,0.24251898351115897,-0.2126666988504557,41.25465416878047,-8.30621769921305,15.138815504733811
1.8578700568442654,0.9615090047631731,1.243348509791177,-19.712671526619914,-2.1113496192582146,-5.193096192330281
0.07544837951533942,0.185965209674196,-1.3602149971200188,75.34740280751829,32.666595400393994,43.82613132133562
0.18861870648756052,0.39507019239342694,0.4263877227844494,13.235264527280611,2.951687962490402,-11.089550792545603
-0.09106769887551902,-0.6987651026893328,-0.3254051021022466,-52.94225342698234,-19.84147685506249,169.56354377380714
-0.18237650200076416,0.7427649101218605,-1.9253363955988276,-142.06002743922164,113.61349532768979,-49.01275689813541
-0.28018523393333766,1.3545413954043095,-0.9811503703600496,44.19676274814262,12.996831771395202,8.803404694989274
-0.9481689169044518,0.6441113511271932,-0.29255775462909034,37.478600262719354,-13.386655578511537,45.40312285224642
-0.1268706202780442,1.3189831958020175,0.8147378054282404,-9.79637940740988,31.45426881673526,57.15124426777769
-0.5633305373620177,0.2942072742868714,0.6214053304208843,22.474619892482178,-0.7557874494402003,-41.36828353356751
0.11719569703733634,0.19818351058803113,-0.1470210474866914,-88.286136451302,-2.556800469357367,33.86132873836836
-1.1388277051531375,0.6121558519021539,0.8831547612389041,28.721353915324613,-145.74893790061168,-24.60893899046858
-0.5621256044107166,0.38709148349376704,-0.9555449421860427,-52.772516362293686,16.695373003101686,62.78665613921967
-0.9530092972053614,0.3987222739182126,-0.38969439182721655,-10.243736340511283,-15.05963460194604,-12.666912089293357
0.6618779238599337,1.1048051992699564,1.3209122850105457,-0.725368564314454,-28.96520394987919,62.80247208466239
-1.9512148795723978,-0.48652450027838706,0.027091937397801608,-12.168231397846856,72.69953944532021,-72.53597503213783
1.1447686744597136,0.47670170421166547,1.0057992872998918,2.6092501423100303,12.041843413797313,-1.8823500435368523
-0.9882225694017714,0.1826802565746803,0.5121981887336085,-53.78398034013044,-30.333625579894797,-18.920267965707506
-1.1857852553634414,1.241046649277453,0.12229701978642804,-43.449202995644136,-46.88567634360862,59.13058891438301
-1.235094012272403,0.8410031089341223,-0.4640689596552704,135.70755050554197,20.10424031665083,-3.1801451486543897
0.7767504831963846,0.948021424823505,0.16115977510284896,-8.398214737335406,-48.792560729562126,-49.75786639891156
-0.8687368624450313,1.6090108132829422,0.16691697805855304,26.694266979200567,-57.78239987464685,-9.223351108591984
1.2953468850228747,0.40781785103107676,-0.4547333719504196,-40.03753732823251,224.87705327755413,-92.7463369759617
-0.8285446070130921,-0.028349854900273745,0.8515555378557995,9.970720605665445,-14.334101095967933,-77.37484551455131
0.12309146308332855,0.27002139539252157,1.2559852036485535,-34.94462044483028,-26.114710653336704,-11.471274023406323
0.7470950618998503,-1.5962691376732012,-0.2673925983113848,-6.27880537312781,17.079799903089203,-51.30217875839365
0.8645838759712288,-1.7181997636968485,-0.34496319389411134,109.86981477018801,26.19025958067961,-81.04221591940238
-1.1412549687157802,1.058079458444066,0.840039418450697,19.37808633288559,0.7080819010015313,2.5122150037944113
0.19759383105402556,0.6801923080570978,-0.5585295685743918,2.8942237906211106,-0.16085119875219153,-41.02852471660635
-0.5180494268177056,0.0636217602191815,-0.0225290150274417,63.88096344990293,-16.290464270827478,-4.506059208386476
0.7660386592993254,1.6154190306342244,-1.15157397096618,10.773067640964014,2.695338139902904,-3.3784875608459584
-0.498612690098706,-0.7662954855923764,0.14241683961210996,29.06324816554896,-29.87022973840417,-19.318292240158
0.32123894511056056,-0.2812797044333128,1.459310101564431,-15.40344455447291,14.676801984798352,25.555355338663055
0.9665226720542953,0.2282491678084198,0.5419535917712858,-120.16403521455678,55.910597502072584,42.95506450188597
1.246200559510966,0.45812473408010634,0.6557510620317939,-87.19636157983088,166.40508324283743,97.90969658075612
-1.2881411223967927,0.4859648682903704,1.5611727470876389,18.210523541037453,25.872392927644775,-139.79866810513406
0.7580576463908772,-0.1916423061598605,-1.2185028935850106,18.257208598582213,106.25947670310669,12.392665988824206
-1.6720575331580736,0.5943227412704205,0.3084110994112949,21.083281965298436,25.98130102586633,32.888040947937
-0.005731966382300946,0.7486802068257347,-0.8778778025120262,-49.80796493774318,-80.9292958801168,54.052211105605906
-0.6992219236724715,0.7916866554594467,0.7571569257669435,-6.104265242277013,-6.041017460522349,-36.926710253907125
1.4479660885481567,0.25829808446330405,1.023489503310273,10.138147964019465,-17.117877373995753,-18.521869805031052
-1.9646855017531772,-0.6202282279312866,0.12002929160048087,6.673593617546745,33.58001766238749,150.31964032520222
-0.469579018269686,1.3082782961831128,1.1791898299380874,-0.6014260639768043,3.987207998989951,74.43543991109975
-0.6002194411776479,0.6999805220164897,-0.5356277741713595,17.7002593460532,137.84350157172534,25.91867117763591
-1.3749574094120531,0.4897101455980234,1.4603532291126071,-2.0291033876459164,6.4294459272956255,-130.719908389482
-0.5465223660530114,-0.03938069103931369,-0.8718233637393767,-3.648991963401336,-0.6136918407506603,15.230508300316949
0.4217982083568772,0.2475194649323931,-1.2404215762730668,127.55005682796134,-4.518344735249778,-101.17143328582095
0.8124618622693085,0.29565829652103665,-0.6071267503402591,-18.728350866831505,-5.014932728029756,19.7945795564433
-0.44247424586035544,1.311153142913799,-0.6490369450660153,-25.605070466657423,41.074304514563025,-64.31109302232234
-0.33896713972272374,-0.40165844531155426,1.4916286431027055,4.085658618619206,8.157511160553414,10.725900880592137
-0.532906870697338,0.5932203376168192,-0.06133466930675048,32.95173185604504,-32.52563249883316,-56.71765752134835
0.4075513188816128,0.08437615726133155,-0.11670802752336151,-32.68038056985343,-36.88678948079981,-14.391845843198821
-3.017076032234301,-0.5038766255185028,-0.12238162353193494,8.831363141315594,-32.09814147947396,-51.508560709944156
0.5784593888637755,-0.2801678020556946,1.03771527323722,40.331355958209144,-39.3745841191186,23.61857405751206
1.0338232690489204,0.10285820811386781,-0.7067828914963563,81.21370058767647,72.22817558437423,-165.20782023311753
0.11929675119988281,0.4843548182613533,0.4356457921644209,18.367368793896546,-62.30840990917035,-19.60104851264156
-0.5209541038348269,1.8491200335911138,0.4458610565248589,-27.495236966255945,-121.65643588381846,-44.906848038335646
-1.3628379691153725,0.9206083487648005,-0.2335606623185672,23.25386250673483,-45.81305498327665,-63.27290496851219
-0.27872342258433525,0.4731487662728759,0.6228889348149236,14.110878208018606,11.63596279461319,14.115886761895046
-0.23162967773337942,1.7813053397806922,0.3709193457078932,-14.95252469568613,5.431972313081519,-9.727279920368986
0.6886800199716252,-0.33411250078659516,0.3916818567571869,-156.62490227192447,-27.43772011154493,157.57361617569546
-0.2265174484854342,0.2822822229444465,-0.4951462997803955,44.08128243499347,-43.61626974975948,119.40701855285951
-0.7790063490401096,0.4633036991186482,0.7427779388966411,-9.625221333485175,39.26705408922846,29.18245343353368
0.2028689587451985,-0.2313290356218348,-1.1285317061515718,-6.760508548747719,-21.700113312798674,-5.570488345681351
0.7526920360288831,1.4291626106599775,0.26384287826885566,2.767107779565337,-2.5226990827048246,-12.149671335454189
-0.9564693443028573,0.9369606012623688,1.5714991132968743,88.60620974073147,26.012620048584587,-43.685754744799084
1.2426674694498916,1.0563087234876871,1.4964421908162726,41.500077559389496,-4.5978479323136625,14.585726956998972
0.3459036077250727,-0.08940632371047685,0.2648288009334008,-84.25114684294056,18.376326888369586,79.11881127459206
0.17743087273134606,-0.056171107420122074,0.5370807069669812,-19.807918604727256,2.502829477082121,18.39551850957071
-0.40151018568579155,1.3236224070376066,0.5170288450327646,-64.97217529262188,10.85677999525225,4.3341950354312315
0.7618543894592,0.2969048644039312,-0.3755270200679668,-2.359745462091883,6.314737762762105,10.324065832353549
-0.16176168074557862,0.7490575712371336,0.2869955561867268,-14.2500226944099,99.140248184924,7.615915645992022
1.009381485083314,0.7922874277216903,-1.197580174752046,-14.533316554361212,-90.19721938910587,27.99859809598868
1.965812584630115,-1.791239566085634,-0.5983777322628928,39.14358248082513,5.924030971929687,-65.57742196534403
0.9856401335355125,-0.07905810727908402,-0.011088023848881245,22.82678223115344,39.932423395544454,-22.663527073186774
-1.1517473039202117,0.4832907675156446,0.3566023137796147,17.87042789437991,66.26794412233178,-34.068522153920604
-0.2829332272119065,0.8210157984869886,-0.4002594138703773,31.57887863790885,-250.58628640847022,50.30474197912259
0.29676717274813424,-0.4224657511631826,-1.4967188514638756,-62.267406074731205,21.518742839406865,-191.19556750745357
0.28516505799665265,0.6000005949004156,0.09469310791341727,-10.167657806314518,8.170291607168483,6.37811900477824
-1.332727803002538,-0.2704330182101622,0.8945652992474816,-3.360035021790486,-12.529862119951412,-114.2940662836672
0.9367388857314153,0.10394422109143861,-1.217651187358256,-126.25440804891944,32.183138199017634,35.072770083605214
0.4023220984392879,-0.9418687789673963,0.0932124256613095,-2.1950975674258952,-3.4095156951917676,4.847344357310583
0.006783643620738911,1.0875237933222552,1.0632457094087158,-10.500494021539565,13.7280397251971,33.07814767421736
-0.5054757182388971,2.0048443073450706,1.7194207238368138,36.1276267433054,35.79608264930826,-16.503039204516416
0.37320660814572515,-0.035272319751863075,0.9247336381428877,27.96024547455959,38.97317805828446,-40.954640105758784
-0.09565439658331171,1.3205239029957856,0.2778486356956656,-23.266249577651962,43.02946599170859,66.81479499433706
0.06412104250459225,-0.2823348665892178,0.8083828637138755,-16.775621104805158,1.3926716010043756,-107.47443201106114
0.9563632470319497,1.5318801769470431,-0.5702028928687922,-5.742464399558843,-23.530982083251637,147.76848949341525
-0.797991295873048,0.8705978925564279,-1.2012207091993312,88.53331986099535,-19.630880405301706,10.280323321379086
-0.7862323565118169,0.7225184842905983,-0.3909428039896653,-111.41783493155869,-70.60348493266214,-68.20781883313009
-1.7703810185857543,0.9479539518541349,-0.5882381432870846,21.840700380215594,85.44638577113129,21.34615511616991
-1.1301741984111042,0.46202802285558264,0.3701786791837362,33.0675638689429,-2.5946758293722434,-15.3058949015617
0.48297279901855117,-0.3704989147834841,-0.7884472842042247,-5.99802142680377,13.920479736039347,68.65512653940462
-0.9233894926124258,1.0360294208513952,-1.3999956729495193,26.085280797231604,-3.520480140329623,23.55078283671482
-0.3996570264829058,-0.30481458611452383,-0.035348027598821136,-73.22088762628384,-39.92581917775086,44.09083672967997
1.352838969481194,0.1232610916337343,0.5882552259485225,6.568013127148264,-16.887610579623807,13.684651788948404
-0.5703083372125509,0.5494298110700346,-1.6040320080458712,13.899066592961724,-18.405028652400752,19.653738200730174
0.08152330474337113,1.8112958863376256,0.2800203564680043,-2.4961174885739705,-117.350931213496,-14.296831081468255
1.1996445840712904,0.7673355224403556,-0.16921405393579514,-68.69544928555152,-44.65648566813496,35.53446683535316
0.6225302556756305,1.6185639307240016,0.13133125284234787,7.275903752414119,65.23229174019225,52.77902049022287
1.800205968565354,0.6297082773240228,-0.47454620441869055,-96.46204214367195,40.13593448874766,62.476272078245465
-0.49855894222348,-0.18245732709408163,2.1820721608118308,32.45011683756994,-27.348527997742902,2.78617954586236
1.1459662943461217,0.4687663659573336,-0.6789677077995891,-12.232926019505067,92.1782412923649,72.96001402807168
0.6912487227177952,-0.556048583404747,0.07783639311345436,146.64041027745037,-28.71092234127711,-83.67642649863538
-1.7382952735477217,-0.18113356446629258,-0.6296200753624923,-4.0468932253958165,33.42151455778912,25.384521679135222
-1.7638423399797616,-0.05858340471421711,0.4225918791162202,19.249728066805208,36.04355715826407,5.685064703599135
0.7126308135500451,0.6235213488913823,-0.5587494630763001,-5.723940283081683,-33.83696987327494,23.46313964645737
-0.05853516423263616,0.9307443500845141,0.3037388848229404,15.604226928780903,23.863377857836422,8.23488309770291
-0.4632597514755238,2.1235851849504623,-1.1212893057523594,50.282920760390056,-61.208228563230335,59.351488444923696
0.04940081612517244,1.0974854439835018,1.1617487029950408,-8.809153227778722,-1.2090273521753214,4.882155750362388
0.3056632093069879,0.8556918344349453,0.7730464929441601,-9.74164401654162,-11.098481483712764,35.441943237655025
0.7861439822918118,0.6496009589668172,0.2792583130362106,11.047415252092705,7.892670519002057,-8.430294755270502
2.6120544276930615,0.06692314726472526,0.9818518594219544,74.87755376010064,5.622663592229069,-49.665367611739626
-1.083945658855661,0.5448992800469018,-2.5625578824593003,-3.66190676087937,134.5152691382516,-0.9764172376084788
-1.3482200994538966,1.6253995719441212,0.3802522270944359,-32.54695434041655,-136.18525331391825,-28.61052505246668
0.3966434645913238,0.06577203070983018,-0.9490258519846253,106.48605319667524,93.75122864254044,-32.184825323976725
1.547120086172702,1.1229246549982623,1.3157382176874208,-91.30850916225744,-35.30124952603559,86.87996896388202
0.2721245678661954,0.1249695105002856,-0.13139853296946402,15.55001622610495,11.54026913635827,0.6005610347841742
0.3013424564591103,-0.14012586522907933,0.41600967334964445,-69.41394597694658,-10.336317398733895,53.64460127374701
0.5941784910197281,0.9692010737773019,0.6094874652919783,4.61997702575351,-9.044895958872823,-0.35826788414809096
1.6890821444199091,2.369886066778484,0.3678688818971774,33.28895534429819,43.235109201341714,34.537224377390345
0.7144445075622645,0.6583176313471019,0.7619013313131677,-13.20305069547605,-79.88584725574297,60.630545491851294
-1.3962942617512892,-0.36275387050038754,0.7107688272054864,33.24867163775374,48.26437469388546,-63.84728732066312
-0.32340584924285865,0.27073137475825254,0.13047698985540954,-11.740572723127567,97.02381550425284,11.981180590519418
-1.1781724309887955,-0.6662953188314141,1.7773508189089817,3.6142337746619235,-158.8782518260366,-62.07242184889094
0.17799747003485034,-0.6305110154602465,-0.9327190716040292,2.6626570820410342,-5.467346375060051,-6.303178464340898
-1.8567536905780342,-0.1019716155369742,0.7388993563176679,6.367987247134187,14.602533922980816,-26.30718918992441
2.467695007977898,-0.9925721719280374,0.6411916144512492,41.79032954628156,-64.52629965233726,71.59913983793503
1.1735354904770996,-0.18070238696499355,0.4362284194625002,142.59063379338247,7.776723484066259,-28.179714208502094
0.3139263075303548,-0.19134592961752894,-0.2453696315752976,-55.327921612184596,16.270078290354306,-16.47885211772548
-1.5885531146128686,-0.14468485618420573,0.2997984494300877,-5.546551102886169,113.19510272115937,22.570054212737585
0.15494822031869507,0.2613381797359058,-1.2380790883904276,48.85480885646801,189.74868087191163,43.04402609185351
-1.2433151940075486,0.6647461642464293,-0.22072152331021294,34.257733120977655,-91.86005940982082,-14.703795371889907
0.7608779507381452,-0.1728975701008787,0.7886499165928011,-23.701181340940273,10.490613864206383,-6.821882332365802
-0.5806120205677878,1.1304632355292394,1.2696745012642765,-51.62718347658523,-75.87872022448383,35.075266870987335
-1.118650184193139,-0.2821311870408702,0.16694175229608368,30.226665188327832,-0.6740779608729002,30.438041559792712
-1.1059315856778569,1.0451648914506546,-3.193500396928218,21.804354223245433,-158.3565584943465,12.330097453819764
0.3526441497666005,-0.29747130587357207,-0.021752856808918655,-64.35634069745988,-31.467282836266044,70.93266636844113
0.33648045323253273,-0.12785157982506457,0.1209731735452573,-49.32627562739082,-72.94667976075894,161.2672921139328
-1.7644372600201712,0.23702603348782592,0.3281015011291417,-2.419009581100645,26.3775411186567,97.4396192852907
1.2808683274430723,0.5281300865889873,1.7892103810487523,-97.02637738724468,63.45773308942903,69.83781779640421
-0.8613076514188939,0.9768907127624287,-0.19985191647218914,-30.287755718255788,11.200928470142362,26.131735460076825
1.031109104575811,1.43183048432999,0.7324342303254953,10.072019941818565,21.385588474187525,37.393371449217504
-0.07344173412031363,0.2632331734851948,0.15762481070208867,-16.333921360998524,-5.344536441368035,-23.412612517510937
-0.612373168691169,0.17866068629616438,-0.6778217247147083,-19.356973466453233,-20.00080220990608,-4.845278923301995
0.6735555745796866,0.278958122186979,0.6389883943537984,-10.629495164281694,-11.466941411877242,104.92072232245796
0.7111372266133521,0.9847593061957953,0.15652536950882806,32.77690592429299,2.7355866313791672,-38.280101962272425
-1.465126941067043,0.1656941261176857,-0.4779518657520846,80.0087790825667,-171.33719540621843,-86.0742659716927
0.02581964231359224,-0.09340141878599739,-0.994508777712402,44.833538630365965,66.07845320500357,5.375141400547443
0.3685878105966115,0.5394365435937329,-1.627627325719209,-17.831029995300216,-26.091230201931303,-1.8911761573274477
1.2688512503437037,0.7633099500654029,-0.2510631618182076,32.685091070912435,24.687103442771765,-49.6090397815969
-1.2108248464601175,0.2760325801673961,0.1783821493710483,-15.330381354828258,19.772823863110652,93.02258149266666
-0.6488901459661834,-0.53324442157923,0.804707618276316,13.580919362351949,-15.606934664696084,34.34851333194318
-1.2182490666943897,1.345098474306642,-0.8270933020916845,69.12604229876744,-41.95966730921174,-196.180275906009
-0.7705644416525143,1.6882210778033626,0.6928615016073816,3.0953438246082796,-85.45911029335997,-67.59578843049154
-1.8336561965183455,0.9409118716639677,1.3249849347315694,-36.68270090409123,-1.5645151119923992,-6.307704592369378
0.3334001854671279,-0.2835989468824317,1.3299643659451819,-20.015970832255203,55.01755274473034,78.71531813318505
2.419018026349284,0.044560511027701755,-1.183604110956209,69.19910713290055,-23.190641963339434,-100.97817781893214
0.0020309754684639247,0.1961696366862811,0.9966615832617529,-35.17416338820844,4.309829494784013,-37.671345375384895
0.4101661461466292,1.6453238018714502,-1.1280020185112394,55.365039248887,-224.62275069287136,44.63913234808338
0.027653661076375236,-0.04925703269003123,-0.4947614378859869,-40.224672134760354,15.243381735212342,119.3497661797805
-0.5064759200406364,0.5936435358476714,-0.3467373849002556,-88.891134893808,53.33293904104482,-31.17865628829424
0.5686573224064444,0.40561068943769213,-1.4262252894225036,70.75740767813153,-104.90891399382502,51.3100149052167
-0.15389666615935005,0.9497519641717155,0.7671267959015469,37.00918586781189,-26.00761343049184,-74.41836496289012
0.6150096947153114,-1.426055966529319,1.5419138614718388,-12.876746118476934,12.418744363008987,13.978518290595074
-1.0709037213326724,0.5749975868185555,1.472173365986966,-3.109379957517766,-17.886172300294934,-8.206390606691723
-0.027285794552068143,-0.4340001303270246,-0.2839070734252,132.00861519776632,86.24736358558846,-83.2101616935225
-0.7205067701852961,1.0664084532711313,0.29001913013979197,39.45698725392391,-18.588845769354204,141.73008969564955
0.7655033218766523,-0.1593422268105646,-0.021160846769120223,19.114785218139644,12.926909506133864,-15.81474766813349
0.3236072455830068,1.7395676746884237,-0.034260818530660736,100.08784119054543,9.939064177919564,-69.56958694901886
0.10878519338006076,0.3820463891150633,-1.1781129821764562,15.363014207669652,-82.27978928076591,15.082135580742817
1.6512944259189037,-0.5527737677607899,-0.06153859329144101,4.516227733083913,15.68845739204778,1.5098744643865394
-0.9878663715887038,0.08452613205357255,0.2871517415871906,63.919906586696904,-32.71124525853849,-32.558857660726055
-0.7179206176724104,-0.033627033263738115,-0.46138726019008197,141.52207143411357,48.14379087090148,8.006673901464897
1.9223135456476292,-0.7656473548454581,0.9421992507605692,2.617649169285445,2.886232379755035,78.31587787361694
0.8028084512374338,0.48494870339122,0.26160931839882884,-49.895433299448975,-17.652318709795967,-35.06614035426847
0.07034697045755925,1.2336535138386617,0.2665349322041895,94.36961023519261,-16.356581409840874,-20.760475844595682
0.43837769065708887,2.1092712962697564,0.11666261366298436,-25.813262206050446,20.97595773874368,39.38549692581219
1.0059919235173789,-0.6927939373707938,0.18023917226318475,-112.26212987861372,58.36642303558824,45.229565221484506
0.2500990826958537,1.1914836254405246,0.8053057880381763,50.753742765109266,-9.953714172954893,4.999413402424772
2.270074751678969,0.5883434628256522,-0.1601541081631871,-52.99895751065304,30.901794690900527,26.228254255071125
-1.1425393951679288,-0.5385850096034345,-0.03209589196106888,-0.3238860893429504,70.5014855055256,76.53395137012211
0.7258178854817968,1.9172273810893912,0.24157506244665616,49.56139807646903,0.849825177470745,-7.107059789008645
-1.7042914740292006,-0.018366308592758895,-1.5754241711408525,-27.157491574438904,-25.15329566875375,-45.31619661243081
1.3765655289060557,0.3195788972668443,1.0390427038651648,-1.7025804640268194,4.9040661279929445,-6.341767417334475
-1.068744667728154,0.33106063150014564,0.9026194498586914,-24.208656901187577,237.33105020993722,103.49827065897098
0.5357700434294447,-0.31259243673413717,0.6932697125245567,-40.665719010359844,25.15795231488643,-54.88786190601941
0.2843285200527126,1.4936048776732056,0.442103501619453,16.02980200727447,57.36278672787768,-26.44404314859582
-0.1623867425170173,-0.05321304719358175,1.495443042896687,-10.528524993156026,-36.714088130630394,-2.7012063867074936
0.9645208747432745,0.7030839819595548,0.678954249716141,18.1988551783943,-55.75290483942695,-111.48583840911792
-0.2963407446849451,0.9020704436273783,0.825892163439597,-10.933643808616427,-24.163606153095586,-27.99735813030949
0.49285636571264113,-0.5923652382737448,-0.9519814723036595,42.7388485169474,135.96391118229394,-64.08150141358244
-0.32260325354846386,2.1257146025972578,0.1746818387927612,-14.659690676507557,67.08795444915964,72.82305706663833
1.4978692174985986,-0.12798682838089326,-1.0880123276642515,11.829002915407418,4.75970313456746,-88.25577268937671
0.6561530428143779,1.2200486431510646,2.241425085124351,40.086715565747895,34.21315166510133,-3.995046066609545
-2.2962140974832517,0.18163893772176828,0.056116260977303954,-54.604794484620626,36.187575326769135,-57.78517378108798
0.19942796229116866,0.5807849938421689,0.5269564972277221,17.51044811193515,-29.727814341034414,-5.578553891133627
0.3286050563039753,0.31157541924893534,-1.345888606193636,-35.70315046536102,-7.239955741297688,-3.594694987669496
0.6734846467056526,0.28425536804481066,-0.8504653006882604,125.34204040609767,58.18601350700671,-57.99069124788107
0.022070271196104024,1.684112301838804,1.7109340625585805,-50.91979489736101,-43.901168631120704,-3.116346388719311
-1.220573897806595,0.15763335220339586,-0.4372946769792224,70.8573302878687,-20.76564564769488,-8.24224234447133
0.40461547991410707,-1.0092236494071662,0.23700023244423263,64.2231030264976,-19.226927407995095,0.9683091853597852
0.36240500975655254,1.4320262071106742,1.0316766007481424,42.47919764438631,12.414845544116794,-50.55999685493879
-1.9179089481528757,0.9140415508555727,-1.155909514294869,-33.20530238529478,2.684990850341808,-11.167044056934058
0.8732545182775941,0.6788524909514704,1.0317605803599035,-20.37693272557936,-4.947906359999121,4.552289386302877
1.7702045643767081,0.48057609685324715,-0.35196722374433564,54.07929667816309,50.0212376162347,-155.107351613741
1.1111806150202206,1.2846800319421328,-1.391254289811549,63.893942498991315,121.90664617253054,37.76873795861704
0.5279920273745718,0.326922578495972,-1.5251226959057655,108.04276417854585,62.14073057504282,-7.1540348486274965
0.8389228870268648,0.24147845911052507,-0.2310304022213353,-10.124013061420104,-20.578476222411695,-21.763432859952697
-0.7137426711195614,-0.8488926666971895,1.5043997761593166,23.922716857140127,0.9607912299678865,97.76059834038762
-1.0898064393882674,-0.21703414986403793,0.35475635923021553,5.389509808983358,-12.029126377242882,12.045749238979047
0.8240983691921522,1.8668223136609061,0.6276709980802065,-3.167331274358006,0.03564266833805896,9.318344941826378
-0.2957204829126091,0.737284568548513,0.9698435947613943,36.83592158288973,-80.61687286964771,-32.19059908873691
1.5909791042387278,-0.6380618945801346,0.5418758856774236,57.36089584179495,7.871972289784452,-47.275519700426216
-1.2981128669560247,1.0641228304827748,0.43570971673519154,-24.311427594099662,-67.41905917997514,-23.03105292716581
0.1222447550882092,-1.359140211028334,0.02145543979651665,30.11211873374894,156.0965290860759,-59.542721017448656
-0.5797774761794985,-0.6626428982285335,0.532105478761394,12.975463253782172,7.2129452627834105,25.185793343884413
0.6104120910987914,0.8406230759831235,0.3882115019844552,7.697439273523025,68.75075057347287,2.0712149866090357
-1.1044771288123625,1.6435065378320526,-0.07116612403275874,32.05260083198477,-12.995747856746906,41.26233540514005
-1.2444294179353155,0.18763733656664688,-0.1795080004463766,114.64520230498876,-123.95974125997098,41.844421877186754
-0.5736472286549997,1.2119190339809796,-0.6805063472325567,12.995057021611457,3.1863807421501833,55.5285257815206
0.21395593255661982,0.6286000949295059,0.5623722951398066,-121.33054407654933,155.3823382104013,-83.57774741246254
-0.29327113026510826,-0.5784997984780255,0.21224697520769287,34.521776207951575,16.73437353762753,0.40269140129213915
0.9450323775259062,-0.043340477049984116,0.10891496466597225,-8.809624779061899,-36.26555349145526,-13.762760172907585
0.2896688057433394,-0.36165875418851734,0.8572759203678709,4.3929608977190355,12.09064402733987,-72.19027594891664
-0.8884682473838555,-0.33068828817317997,-0.25074695664876445,4.567037801135892,-2.1051332517923975,-13.45668912243525
-0.27400260709585045,-0.10948923732422614,-1.8423828072127726,74.9276462747192,-28.68201862380472,-1.1916028862260875
0.09472359178701917,0.7369822885035913,0.8139693339944498,64.21884886039537,117.5650107286891,49.352425313434495
1.166883114089241,0.5330377156586616,0.6933942102211337,-28.77752174802045,14.412982362877274,30.150328791659188
0.16785492453907014,-1.461054335917606,-1.3372703347250292,-29.513245856467606,-71.31626146298795,152.27236725574116
-1.661658474015405,-0.8352599385158949,-1.4933989660063478,-34.30659947164951,148.48797635931498,-36.99058182827732
1.5116789433891626,-0.7736291039505532,-0.5491494783733367,-16.262269005235638,0.45346844676069187,0.7516293347205265
-1.1749111271980939,-0.5376637082393265,0.6460138125283368,15.262860324977872,-70.11794790287635,-57.73921100516477
-0.0041980833533674655,3.0653578184345602,0.4779888683691703,54.87945774020313,-56.792077938491595,-147.6707083258028
-1.143725635311776,1.6246885131819595,0.11989495562188579,0.9610743169152551,14.878719806601708,-45.00982540400543
0.8492410062212566,1.4209398741200738,0.21081862044653388,-48.47076252358152,25.505447881076886,5.0173461757473765
-1.3000144253416428,-0.3312287048122959,-0.15972005718173377,-34.00381614430325,45.10300594523176,-56.69891121691073
-0.6845350604349549,1.333870747811876,1.5882907259827945,34.943003064353285,8.981549228206584,-48.553046708655344
1.3672532428323074,-0.23849687618128623,0.17345503423179787,-26.576741394838955,82.7468088351977,-18.001287887103683
0.40147038860954815,1.2987957117581945,0.2676353365749752,-38.69455764934095,62.04845506508303,13.802007392117002
2.2314720575910725,1.673990223276828,0.16156677729674018,33.3019696819492,-27.020538526239033,34.813274966571434
0.012065599727730358,0.15527503218465027,0.2027865633750345,-0.6834949309503637,-4.038908235764254,138.22524019082795
-0.28664127094472347,0.30211757971327,0.3159777755812952,31.936160301267794,-24.82699966382744,-13.115786140513828
-0.5689146819863242,0.8452731072601416,-0.350400015741125,-15.265165744221635,-36.88099694742231,-15.575428025441736
-0.08038975841407586,1.2184410264225274,-2.544239174427117,-39.050095649375685,-122.59291632710682,38.78983345606449
1.8313732817474784,1.1333985266230908,1.029242809234445,-64.95906911220303,-75.16209667011194,11.425504827905941
-0.6145551253677569,-0.5010663596040554,-1.500342660896349,4.021370814483845,25.359965090045893,4.616813427861143
0.6680860720416424,1.2064258365337848,1.491545070519145,1.5133105169059957,-36.23928245414559,-1.386653021881092
0.4500713767990734,0.30379096760446334,-0.09335466502138179,2.947332842107651,-12.496849272012604,-2.025074631742436
0.6248907327213078,-0.2615855075524825,-0.0432669696807856,103.5647908493168,-20.685605568215166,-124.98265409537021
-0.01725865212539554,0.06157796243021427,-1.1700972199203785,8.941548017695778,-54.70219722282615,-9.465676213140675
-0.2824348827343518,-0.03734851509997651,-0.808586587532841,17.872434944472847,71.55374627309703,7.2396708138177726
-0.792476053086747,0.6232271106634499,0.6273714600094861,-3.722946359476739,-13.355985206689004,-28.89238843168306
-1.8934371521928703,1.60786459577163,1.5078102097794919,104.51453276302391,39.571385391929056,-35.933609118060474
0.06904389178329817,-0.971680603032798,0.2161647681981207,24.77407729023937,3.331181055762138,-57.05254606817116
1.116886413569015,0.14559237389033527,1.0783857484496173,-80.57197195949718,-17.782429906341456,140.1768069570456
-0.9401767096295023,2.432080859166742,-0.21731230291139836,-64.30234797922661,47.3690513166495,-22.846022581063938
-1.0338084976557085,0.8938551974623741,-0.6230182717580437,-6.463112235057657,134.06497401098304,15.169854639852044
0.14869856836769185,-0.2055326173501612,-1.5861112707319036,-8.777676527236936,14.666100312695043,-44.03601364117304
0.016798349804784368,1.946651238872171,1.0154471507635008,-25.336831531819573,78.02408758568872,-22.72610570011157
0.2501533522032302,1.1375958775876533,-0.7719475721311633,-50.99588816075395,39.63032285002029,101.91163121615037
0.02225059600606516,1.1786507373206367,2.166829360216766,-20.808478913485995,18.91775350602538,-77.40554331987754
